time,seconds_elapsed,z,y,x
1757491397412997600,0.05999755859375,9.546205520629883,3.003002405166626,-1.264662265777588
1757491397423057700,0.0700576171875,9.522712707519531,3.0310592651367188,-1.1295394897460938
1757491397433098000,0.080097900390625,9.508946418762207,2.6051907539367676,-0.7218518257141113
1757491397443138800,0.090138916015625,9.483956336975098,2.4886977672576904,-1.0721534490585327
1757491397453179600,0.1001796875,9.448118209838867,3.107224941253662,-1.5630396604537964
1757491397463218700,0.11021875,9.781959533691406,3.3248727321624756,-1.4736311435699463
1757491397473260500,0.120260498046875,9.906233787536621,2.858377456665039,-1.0776152610778809
1757491397483275300,0.130275146484375,9.75622272491455,2.4705917835235596,-0.8491933941841125
1757491397493341700,0.140341796875,9.690681457519531,2.387468099594116,-0.6788309812545776
1757491397503382800,0.1503828125,9.636960983276367,2.329857587814331,-0.596605122089386
1757491397513421000,0.160421142578125,9.453655242919922,2.521692991256714,-0.7006781101226807
1757491397523459600,0.17045947265625,9.412803649902344,2.5225160121917725,-0.8603414297103882
1757491397533476000,0.18047607421875,9.196203231811523,2.5213937759399414,-0.5729624032974243
1757491397543542800,0.190542724609375,9.16305923461914,2.546158790588379,-0.4974702298641205
1757491397553559000,0.20055908203125,9.263989448547363,2.5382277965545654,-0.5898714661598206
1757491397563625700,0.210625732421875,9.272967338562012,2.4227824211120605,-0.670600950717926
1757491397573662000,0.220661865234375,9.224559783935547,2.2474071979522705,-0.6835445761680603
1757491397583701800,0.23070166015625,9.294964790344238,2.1726632118225098,-0.5494692921638489
1757491397593747200,0.240747314453125,9.34157657623291,2.106149196624756,-0.38905778527259827
1757491397603762700,0.2507626953125,9.383399963378906,2.0615572929382324,-0.3131915032863617
1757491397613828900,0.260828857421875,9.551518440246582,2.0771944522857666,-0.3866635859012604
1757491397623869200,0.270869140625,9.70078182220459,2.130689859390259,-0.39294835925102234
1757491397633864700,0.28086474609375,9.687164306640625,2.237157106399536,-0.45669397711753845
1757491397643946500,0.290946533203125,9.71694278717041,2.2198739051818848,-1.5893758535385132
1757491397654000400,0.30100048828125,9.077092170715332,2.1262006759643555,-1.0381108522415161
1757491397664031200,0.31103125,8.923563957214355,2.1697452068328857,-0.37005379796028137
1757491397674068500,0.321068359375,8.90717887878418,2.218078136444092,0.25565585494041443
1757491397684087300,0.33108740234375,9.010727882385254,2.3673417568206787,0.4792892634868622
1757491397694153200,0.3411533203125,8.984766006469727,2.417245864868164,0.5334580540657043
1757491397704194000,0.351194091796875,9.009531021118164,2.3493852615356445,0.4887164235115051
1757491397714230500,0.36123046875,9.030255317687988,2.319457769393921,0.26650458574295044
1757491397724275000,0.37127490234375,9.08337688446045,2.330381155014038,-0.041524436324834824
1757491397734290400,0.38129052734375,9.255834579467773,2.396296739578247,-0.39631518721580505
1757491397744356900,0.39135693359375,9.290026664733887,2.3826797008514404,-0.5564274191856384
1757491397754401300,0.4014013671875,9.192163467407227,2.2638673782348633,-0.3885340392589569
1757491397764433400,0.411433349609375,9.357138633728027,2.007538080215454,0.21637597680091858
1757491397774474000,0.421473876953125,9.769165992736816,2.12485408782959,0.7867945432662964
1757491397784494300,0.431494384765625,9.927632331848145,2.3895628452301025,0.8105120658874512
1757491397794556000,0.441555908203125,9.95217227935791,2.4800937175750732,0.3372831642627716
1757491397804574200,0.45157421875,9.84256362915039,2.48024320602417,-0.1586158573627472
1757491397814641000,0.461640869140625,9.640103340148926,2.354921817779541,-0.34828153252601624
1757491397824655400,0.4716552734375,9.518074035644531,2.2510733604431152,-0.32209494709968567
1757491397834721800,0.4817216796875,9.503708839416504,2.199373483657837,-0.2472013235092163
1757491397844762400,0.491762451171875,9.526753425598145,2.2684311866760254,-0.21465514600276947
1757491397854786600,0.50178662109375,9.568876266479492,2.3529765605926514,-0.17253215610980988
1757491397864817700,0.511817626953125,9.615413665771484,2.331129550933838,-0.11200375109910965
1757491397874856000,0.52185595703125,9.701604843139648,2.3271639347076416,-0.06950666755437851
1757491397884924400,0.53192431640625,9.740884780883789,2.3175125122070312,-0.06262333691120148
1757491397894965000,0.541965087890625,9.669058799743652,2.24239444732666,-0.07347206771373749
1757491397905004500,0.552004638671875,9.572318077087402,2.229525566101074,-0.08985738456249237
1757491397915046000,0.5620458984375,9.498546600341797,2.3050177097320557,-0.12240356206893921
1757491397925082400,0.572082275390625,9.403152465820312,2.3231239318847656,-0.14095862209796906
1757491397935127000,0.582126953125,9.26570987701416,2.254065990447998,-0.14671967923641205
1757491397945163800,0.592163818359375,9.138967514038086,2.2078280448913574,-0.16909049451351166
1757491397955207000,0.60220703125,9.250073432922363,2.2695536613464355,-0.09876082092523575
1757491397965248800,0.612248779296875,9.29646110534668,2.2805519104003906,-0.17170915007591248
1757491397975246600,0.62224658203125,9.3689603805542,2.223315477371216,-0.2058265209197998
1757491397985330200,0.632330078125,9.501015663146973,2.1443817615509033,-0.22849662601947784
1757491397995367200,0.6423671875,9.598729133605957,2.1529858112335205,-0.30286651849746704
1757491398005409000,0.652408935546875,9.620351791381836,2.206855535507202,-0.3431938588619232
1757491398015447800,0.66244775390625,9.61788272857666,2.1997475624084473,-0.347982257604599
1757491398025466600,0.672466552734375,9.615413665771484,2.160243272781372,-0.33271920680999756
1757491398035529700,0.68252978515625,9.64908218383789,2.144456624984741,-0.309151291847229
1757491398045571800,0.69257177734375,9.631424903869629,2.19810152053833,-0.2860322892665863
1757491398055614200,0.7026142578125,9.643470764160156,2.2340147495269775,-0.30137014389038086
1757491398065654500,0.712654541015625,9.624317169189453,2.223315477371216,-0.30376434326171875
1757491398075692000,0.722692138671875,9.56588363647461,2.1919665336608887,-0.23448212444782257
1757491398085731600,0.732731689453125,9.536105155944824,2.1728129386901855,-0.20223522186279297
1757491398095775700,0.742775634765625,9.57897663116455,2.1475989818573,-0.19901801645755768
1757491398105817000,0.752817138671875,9.621922492980957,2.1499183177948,-0.18727146089076996
1757491398115857400,0.762857421875,9.680206298828125,2.1354782581329346,-0.176871657371521
1757491398125868000,0.772867919921875,9.692102432250977,2.1319618225097656,-0.18532617390155792
1757491398135938800,0.782938720703125,9.635165214538574,2.195183753967285,-0.16317981481552124
1757491398145979400,0.7929794921875,9.56977367401123,2.229675054550171,-0.11604396253824234
1757491398156021200,0.803021240234375,9.523236274719238,2.23087215423584,-0.09195230901241302
1757491398166062600,0.8130625,9.49697494506836,2.2189760208129883,-0.09434650838375092
1757491398176097800,0.823097900390625,9.48994255065918,2.265662908554077,-0.11664251238107681
1757491398186137600,0.8331376953125,9.46031379699707,2.3109283447265625,-0.08521861582994461
1757491398196157000,0.843156982421875,9.419463157653809,2.3050177097320557,-0.06830956786870956
1757491398206197000,0.853197021484375,9.388338088989258,2.272845506668091,-0.07077858597040176
1757491398216260600,0.863260498046875,9.376517295837402,2.2979846000671387,-0.07653963565826416
1757491398226302200,0.87330224609375,9.401580810546875,2.2894554138183594,-0.054019175469875336
1757491398236323600,0.883323486328125,9.36694049835205,2.269179582595825,-0.05282207578420639
1757491398246363100,0.893363037109375,9.4014310836792,2.2585551738739014,-0.08641571551561356
1757491398256423200,0.903423095703125,9.505130767822266,2.2561609745025635,-0.10841244459152222
1757491398266440400,0.9134404296875,9.526678085327148,2.288407802581787,-0.11783961206674576
1757491398276481300,0.923481201171875,9.56161880493164,2.2906525135040283,-0.12876315414905548
1757491398286522600,0.933522705078125,9.579425811767578,2.279878616333008,-0.13010989129543304
1757491398296567300,0.9435673828125,9.550919532775879,2.3062148094177246,-0.13100773096084595
1757491398306603000,0.95360302734375,9.540145874023438,2.314669370651245,-0.15592238306999207
1757491398316664300,0.963664306640625,9.524582862854004,2.342576742172241,-0.23089082539081573
1757491398326684000,0.973683837890625,9.523236274719238,2.3080103397369385,-0.24660277366638184
1757491398336750000,0.98375,9.649829864501953,2.31833553314209,-0.19460371136665344
1757491398346804700,0.9938046875,9.596110343933105,2.3172879219055176,-0.21226094663143158
1757491398356809000,1.00380908203125,9.637410163879395,2.24935245513916,-0.23792380094528198
1757491398366868000,1.013867919921875,9.630302429199219,2.251746654510498,-0.23433248698711395
1757491398376912100,1.023912109375,9.597007751464844,2.297161817550659,-0.23508067429065704
1757491398386949000,1.03394921875,9.630526542663574,2.3197569847106934,-0.2231096774339676
1757491398396993500,1.04399365234375,9.63883113861084,2.324695110321045,-0.27084407210350037
1757491398407056000,1.054055908203125,9.631499290466309,2.2974610328674316,-0.3056347966194153
1757491398417074700,1.06407470703125,9.603891372680664,2.2328176498413086,-0.26059389114379883
1757491398427093500,1.074093505859375,9.588403701782227,2.2375311851501465,-0.2521393597126007
1757491398437151700,1.08415185546875,9.561992645263672,2.284367799758911,-0.2695721387863159
1757491398447196700,1.09419677734375,9.538125038146973,2.2893056869506836,-0.29807811975479126
1757491398457233200,1.104233154296875,9.526154518127441,2.2737433910369873,-0.2825906276702881
1757491398467277600,1.114277587890625,9.55002212524414,2.259228467941284,-0.2613420784473419
1757491398477320400,1.124320556640625,9.542839050292969,2.2509236335754395,-0.2637362778186798
1757491398487358500,1.1343583984375,9.523835182189941,2.2747910022735596,-0.256329208612442
1757491398497398800,1.144398681640625,9.546355247497559,2.220921277999878,-0.2412906438112259
1757491398507396600,1.154396728515625,9.604714393615723,2.198176383972168,-0.24525603652000427
1757491398517476600,1.1644765625,9.610100746154785,2.1920413970947266,-0.2752583622932434
1757491398527497500,1.17449755859375,9.644817352294922,2.2061820030212402,-0.2430862933397293
1757491398537574000,1.184573974609375,9.656713485717773,2.2002713680267334,-0.26231473684310913
1757491398547602400,1.1946025390625,9.604265213012695,2.2158336639404297,-0.25236383080482483
1757491398557642500,1.204642578125,9.586383819580078,2.2003462314605713,-0.24286183714866638
1757491398567683300,1.214683349609375,9.539920806884766,2.2218191623687744,-0.22580315172672272
1757491398577717000,1.224717041015625,9.48762321472168,2.2515223026275635,-0.1883937418460846
1757491398587764500,1.234764404296875,9.45560073852539,2.2777087688446045,-0.15936404466629028
1757491398597805300,1.244805419921875,9.462409019470215,2.264690399169922,-0.16662147641181946
1757491398607820000,1.254820068359375,9.496825218200684,2.2554128170013428,-0.22535423934459686
1757491398617882400,1.26488232421875,9.57785415649414,2.2217442989349365,-0.20208558440208435
1757491398627923000,1.2749228515625,9.625663757324219,2.239551305770874,-0.1926584243774414
1757491398637967400,1.28496728515625,9.681852340698242,2.2765116691589355,-0.2033575028181076
1757491398648008000,1.295008056640625,9.665167808532715,2.2898294925689697,-0.2354547679424286
1757491398658023000,1.30502294921875,9.63643741607666,2.27441668510437,-0.25094226002693176
1757491398668089000,1.315089111328125,9.50034236907959,2.2554876804351807,-0.24682722985744476
1757491398678129700,1.325129638671875,9.612719535827637,2.3330748081207275,-0.28146833181381226
1757491398688166100,1.335166259765625,9.620126724243164,2.4275708198547363,-0.30945056676864624
1757491398698210600,1.34521044921875,9.81368350982666,2.3616554737091064,-0.06741174310445786
1757491398708225800,1.355225830078125,10.323946952819824,1.4220061302185059,0.7580640912055969
1757491398718292000,1.3652919921875,8.742427825927734,1.8989012241363525,-0.3519476354122162
1757491398728313600,1.375313720703125,8.960299491882324,2.342052936553955,-0.20201076567173004
1757491398738373600,1.38537353515625,9.590798377990723,2.2462100982666016,-0.3356371521949768
1757491398748412400,1.395412353515625,8.914286613464355,2.59853196144104,-0.3886088728904724
1757491398758429000,1.405428955078125,10.054899215698242,2.230722665786743,-0.19467853009700775
1757491398768491500,1.415491455078125,10.636091232299805,2.068141460418701,0.1595136821269989
1757491398778510300,1.42551025390625,11.348814964294434,1.6088286638259888,0.6113444566726685
1757491398788576300,1.435576171875,11.793388366699219,1.0030208826065063,0.829590916633606
1757491398798616600,1.445616455078125,10.539200782775879,0.8019079566001892,1.0512042045593262
1757491398808631300,1.45563134765625,7.766490936279297,1.0752958059310913,1.1434557437896729
1757491398818659000,1.4656591796875,5.338845252990723,1.466747760772705,1.1585692167282104
1757491398828734000,1.47573388671875,3.8972365856170654,2.3097312450408936,1.8320132493972778
1757491398838761000,1.485760986328125,4.460472583770752,2.347888946533203,1.1673977375030518
1757491398848819700,1.49581982421875,5.2352213859558105,2.2584803104400635,0.4126257002353668
1757491398858859800,1.50585986328125,8.176273345947266,2.0194342136383057,0.3328688442707062
1757491398868900400,1.515900390625,10.323648452758789,2.6321253776550293,-1.3364135026931763
1757491398878910500,1.525910400390625,9.118541717529297,6.9642839431762695,-9.22874927520752
1757491398888956000,1.535955810546875,8.728212356567383,9.852738380432129,-11.378144264221191
1757491398898999300,1.545999267578125,10.252120971679688,4.047023773193359,-2.550872325897217
1757491398909062400,1.5560625,10.081833839416504,2.3120505809783936,-1.7360206842422485
1757491398919108900,1.56610888671875,10.631976127624512,2.963423252105713,-2.3021745681762695
1757491398929143800,1.576143798828125,10.376245498657227,3.5406501293182373,-2.330530881881714
1757491398939184000,1.58618408203125,10.24770736694336,3.103708505630493,-2.553640604019165
1757491398949199400,1.596199462890625,8.990975379943848,2.8288989067077637,-2.8790276050567627
1757491398959265500,1.606265625,7.964536190032959,2.6996121406555176,-2.2641665935516357
1757491398969282600,1.616282470703125,8.197821617126465,2.858452320098877,-1.106644868850708
1757491398979347000,1.626346923828125,7.8332295417785645,3.2091281414031982,-0.9092729091644287
1757491398989388300,1.63638818359375,7.761403560638428,3.665672540664673,-1.234061360359192
1757491398999404300,1.646404296875,8.447417259216309,3.2823758125305176,-0.712424635887146
1757491399009464300,1.65646435546875,8.651073455810547,2.907458782196045,-0.27076923847198486
1757491399019505700,1.666505615234375,9.026215553283691,2.621950149536133,-0.10736498236656189
1757491399029547800,1.6765478515625,9.170465469360352,2.131288528442383,0.0867898091673851
1757491399039590000,1.68658984375,9.101632118225098,2.4892215728759766,-0.3389291763305664
1757491399049605000,1.696605224609375,8.769137382507324,2.533364772796631,-0.22849662601947784
1757491399059667000,1.7066669921875,8.803105354309082,2.0737528800964355,0.23485621809959412
1757491399069686300,1.716686279296875,9.00092601776123,2.3914334774017334,0.17043723165988922
1757491399079748900,1.726748779296875,9.627309799194336,2.729165554046631,-0.200065478682518
1757491399089792800,1.736792724609375,9.787422180175781,3.1845874786376953,-0.8516624569892883
1757491399099803000,1.746802978515625,9.67070484161377,3.3370683193206787,-0.9885808229446411
1757491399109848300,1.756848388671875,9.564461708068848,3.4240825176239014,-1.1771990060806274
1757491399119914200,1.766914306640625,9.648707389831543,3.537956714630127,-1.0348188877105713
1757491399129955300,1.776955322265625,9.661576271057129,3.444582939147949,-0.994940459728241
1757491399139991800,1.78699169921875,9.14121150970459,2.686444044113159,-0.36159926652908325
1757491399150036200,1.7970361328125,9.009231567382812,2.333224296569824,-0.11514613777399063
1757491399160075800,1.80707568359375,8.736516952514648,2.451812267303467,-0.1322048306465149
1757491399170124000,1.8171240234375,7.948076248168945,3.0963761806488037,-0.5943605899810791
1757491399180139300,1.82713916015625,7.312939643859863,3.368791341781616,-0.6898293495178223
1757491399190198800,1.83719873046875,7.730278968811035,3.2217724323272705,-0.5387701988220215
1757491399200235500,1.847235595703125,7.804049968719482,2.7422587871551514,-0.40394672751426697
1757491399210237400,1.857237548828125,8.120159149169922,2.968136787414551,-0.7941267490386963
1757491399220319700,1.86731982421875,8.504354476928711,4.032135009765625,-1.4354735612869263
1757491399230335200,1.877335205078125,8.583736419677734,4.34607458114624,-1.6808043718338013
1757491399240406000,1.887406005859375,8.806472778320312,3.2142906188964844,-1.2143839597702026
1757491399250438100,1.897438232421875,9.582792282104492,2.4885482788085938,-0.7503577470779419
1757491399260457200,1.907457275390625,9.709012031555176,2.2578818798065186,-0.4828057289123535
1757491399270519600,1.91751953125,9.72853946685791,1.145176649093628,0.4833294749259949
1757491399280561400,1.9275615234375,8.908525466918945,2.3885154724121094,-0.09397241473197937
1757491399290578400,1.937578369140625,8.588749885559082,3.3622074127197266,-0.6217442750930786
1757491399300621600,1.94762158203125,9.21056842803955,2.8006174564361572,-0.7166892886161804
1757491399310672600,1.957672607421875,9.82647705078125,2.0905869007110596,-0.48564884066581726
1757491399320725800,1.967725830078125,10.136899948120117,2.5347862243652344,-0.40783730149269104
1757491399330745000,1.9777451171875,10.366070747375488,2.611325979232788,-0.5014356374740601
1757491399340764200,1.98776416015625,10.780192375183105,2.2399253845214844,-0.3626467287540436
1757491399350848000,1.997847900390625,11.42984390258789,1.9176807403564453,-0.09576806426048279
1757491399360869000,2.007869140625,11.822418212890625,1.8989760875701904,-0.03808277100324631
1757491399370929200,2.01792919921875,11.742735862731934,2.0655226707458496,0.36077627539634705
1757491399380969200,2.02796923828125,11.608436584472656,2.181342124938965,0.3991583287715912
1757491399390988000,2.037988037109375,11.066449165344238,2.353724718093872,-0.0338929183781147
1757491399401015000,2.04801513671875,10.377143859863281,2.336366653442383,-0.4412812888622284
1757491399411110700,2.058110595703125,9.899649620056152,2.1116859912872314,-0.7448959946632385
1757491399421131300,2.06813134765625,9.438167572021484,2.048389196395874,-1.1070938110351562
1757491399431151400,2.0781513671875,9.109414100646973,1.9961656332015991,-1.323095679283142
1757491399441186300,2.088186279296875,9.068787574768066,1.9093010425567627,-0.6301987767219543
1757491399451249400,2.09824951171875,9.346589088439941,2.017488956451416,-0.3610755503177643
1757491399461289500,2.10828955078125,9.656937599182129,2.293196201324463,-0.1852513551712036
1757491399471335000,2.1183349609375,9.668909072875977,2.2160580158233643,-0.03546411171555519
1757491399481376300,2.128376220703125,9.734450340270996,2.197129011154175,-0.10751461982727051
1757491399491413800,2.138413818359375,10.052729606628418,2.1803696155548096,-0.19026421010494232
1757491399501451800,2.14845166015625,10.255188941955566,2.0364930629730225,-0.13848960399627686
1757491399511471000,2.15847119140625,10.322600364685059,2.0208559036254883,-0.3787327706813812
1757491399521535200,2.16853515625,10.210371971130371,2.0452468395233154,-0.44247838854789734
1757491399531593500,2.178593505859375,9.395445823669434,2.3099558353424072,-0.37723639607429504
1757491399541622000,2.1886220703125,8.949226379394531,2.132410764694214,-0.08162731677293777
1757491399551658200,2.198658203125,8.899995803833008,1.8901474475860596,0.16639702022075653
1757491399561673700,2.208673828125,9.525555610656738,2.1395184993743896,0.02910451404750347
1757491399571716600,2.218716552734375,9.842787742614746,2.153808832168579,-0.05342062562704086
1757491399581760500,2.228760498046875,9.606210708618164,2.0323030948638916,-0.04242226108908653
1757491399591809300,2.238809326171875,9.232864379882812,2.0626046657562256,-0.029703065752983093
1757491399601857300,2.248857177734375,8.937555313110352,1.9389293193817139,0.44337621331214905
1757491399611878400,2.25887841796875,8.679130554199219,2.0246715545654297,1.0716297626495361
1757491399621919700,2.268919677734375,8.58149242401123,1.641599416732788,1.8045547008514404
1757491399631981300,2.278981201171875,9.255759239196777,1.1755530834197998,2.6717793941497803
1757491399642000400,2.28900048828125,9.453056335449219,0.9060556888580322,3.2740707397460938
1757491399652062500,2.2990625,9.531017303466797,0.9033622145652771,4.054131507873535
1757491399662105900,2.30910595703125,9.0952730178833,0.7656956315040588,5.250858306884766
1757491399672119800,2.319119873046875,8.281244277954102,0.6754641532897949,6.376956462860107
1757491399682201600,2.32920166015625,7.501482963562012,0.5455039143562317,6.818836212158203
1757491399692203500,2.33920361328125,5.74937629699707,-0.5761047601699829,6.688202381134033
1757491399702267100,2.34926708984375,5.905298709869385,0.16505028307437897,6.959719657897949
1757491399712282400,2.359282470703125,6.1530985832214355,-1.064970850944519,7.172280311584473
1757491399722324700,2.36932470703125,5.255721569061279,-2.804208755493164,7.84609842300415
1757491399732364300,2.3793642578125,3.3120038509368896,-3.72320818901062,7.589993476867676
1757491399742405400,2.3894052734375,1.8568530082702637,-3.800869941711426,6.791975975036621
1757491399752466200,2.399466064453125,0.006883329711854458,-4.327145576477051,6.779107093811035
1757491399762507800,2.4095078125,-1.3088053464889526,-4.550180435180664,6.135815143585205
1757491399772516600,2.4195166015625,-1.1391911506652832,-4.962880611419678,5.240832805633545
1757491399782588000,2.429587890625,-0.07205050438642502,-5.176563262939453,4.176011562347412
1757491399792651000,2.439651123046875,1.1079916954040527,-4.561777114868164,2.6161890029907227
1757491399802668800,2.449668701171875,2.293046712875366,-4.096254825592041,1.5708955526351929
1757491399812713700,2.459713623046875,3.878906011581421,-3.7642087936401367,0.5765537023544312
1757491399822728700,2.469728759765625,4.476334095001221,-3.682431936264038,0.28550854325294495
1757491399832769300,2.479769287109375,4.441244125366211,-3.730764865875244,2.398690938949585
1757491399842831400,2.489831298828125,5.517736911773682,-3.1199440956115723,4.925172328948975
1757491399852876000,2.4998759765625,11.796456336975098,-2.152162790298462,8.159065246582031
1757491399862916000,2.509916015625,15.076662063598633,-4.007220268249512,12.060866355895996
1757491399872953000,2.519953125,17.159168243408203,-4.127753257751465,13.655404090881348
1757491399882997500,2.52999755859375,17.891944885253906,-2.043825149536133,14.089577674865723
1757491399893023200,2.540023193359375,18.21755599975586,-0.2603694200515747,13.8399076461792
1757491399903079200,2.5500791015625,18.90880584716797,1.378835678100586,12.431293487548828
1757491399913131500,2.560131591796875,20.50312042236328,2.3635261058807373,11.5366849899292
1757491399923112700,2.57011279296875,21.902904510498047,2.5284266471862793,10.840421676635742
1757491399933174800,2.5801748046875,23.31989860534668,2.475529670715332,10.755876541137695
1757491399943236600,2.590236572265625,23.968204498291016,2.107944965362549,11.022530555725098
1757491399953281500,2.600281494140625,23.33807945251465,1.6065093278884888,11.196259498596191
1757491399963303700,2.6103037109375,21.774965286254883,1.340678095817566,10.792387962341309
1757491399973359400,2.620359375,19.711088180541992,1.4077157974243164,9.628207206726074
1757491399983377400,2.63037744140625,16.829069137573242,1.4683938026428223,8.028656005859375
1757491399993439700,2.640439697265625,13.45638656616211,1.3884124755859375,6.546196460723877
1757491400003480600,2.65048046875,11.824438095092773,1.374197006225586,5.517961502075195
1757491400013504000,2.66050390625,11.088820457458496,0.6928220987319946,4.65402889251709
1757491400023539500,2.67053955078125,10.541071891784668,0.07249941676855087,3.9543232917785645
1757491400033581300,2.680581298828125,9.589750289916992,-0.46492403745651245,3.506458044052124
1757491400043642400,2.690642333984375,8.15524959564209,-1.1370961666107178,2.966864824295044
1757491400053687300,2.700687255859375,9.656189918518066,-1.2906243801116943,2.6676645278930664
1757491400063688400,2.7106884765625,9.995417594909668,-1.9832968711853027,2.339284658432007
1757491400073767700,2.720767578125,9.266532897949219,-2.3826048374176025,1.9127427339553833
1757491400083809000,2.73080908203125,8.283563613891602,-2.4932618141174316,1.6254384517669678
1757491400093824000,2.740823974609375,7.542633056640625,-2.2764368057250977,1.213860273361206
1757491400103890200,2.75089013671875,7.131504058837891,-2.7003602981567383,1.5887773036956787
1757491400113906000,2.760906005859375,6.963311195373535,-2.7760767936706543,1.7334768772125244
1757491400123971000,2.77097119140625,6.634931564331055,-2.5633671283721924,1.7984943389892578
1757491400134011600,2.78101171875,6.627674102783203,-2.2084267139434814,1.7412580251693726
1757491400144052500,2.791052490234375,6.339621543884277,-2.4210617542266846,1.8437597751617432
1757491400154092800,2.8010927734375,6.456638336181641,-2.470890998840332,1.98726224899292
1757491400164116500,2.811116455078125,6.9689226150512695,-2.4123826026916504,2.087893486022949
1757491400174148400,2.8211484375,7.240066051483154,-2.497825860977173,2.390385866165161
1757491400184214300,2.83121435546875,7.467514991760254,-2.432508945465088,2.642749786376953
1757491400194229800,2.841229736328125,7.767688274383545,-2.364797830581665,2.8744635581970215
1757491400204277200,2.85127734375,7.94672966003418,-2.192340612411499,2.9177088737487793
1757491400214296300,2.86129638671875,8.015337944030762,-1.975889801979065,2.8329391479492188
1757491400224376600,2.87137646484375,7.823727607727051,-1.8623148202896118,2.860846519470215
1757491400234415000,2.8814150390625,7.764770030975342,-1.6362872123718262,2.7934348583221436
1757491400244424400,2.891424560546875,7.937003135681152,-1.481038212776184,2.7388172149658203
1757491400254472400,2.901472412109375,8.053271293640137,-1.4523078203201294,2.9448680877685547
1757491400264545800,2.9115458984375,8.110432624816895,-1.3248913288116455,3.2461633682250977
1757491400274553600,2.9215537109375,8.333019256591797,-1.2184990644454956,3.395052909851074
1757491400294656800,2.94165673828125,8.80811882019043,-1.2030115127563477,3.0516345500946045
1757491400304701400,2.951701416015625,8.893037796020508,-1.048435926437378,2.9019219875335693
1757491400314698800,2.96169873046875,8.889296531677246,-0.7546224594116211,2.8884546756744385
1757491400334804500,2.981804443359375,9.025691032409668,-0.24203883111476898,2.780266761779785
1757491400344837600,2.991837646484375,9.181987762451172,-0.1941547989845276,2.7058968544006348
1757491400374959400,3.02195947265625,8.0122709274292,-1.2782793045043945,2.8413188457489014
1757491400395041300,3.042041259765625,10.754903793334961,-0.2604442536830902,2.171915054321289
1757491400405065200,3.052065185546875,11.194912910461426,-0.20874446630477905,1.956661343574524
1757491400415125000,3.062125,11.307215690612793,-0.02985270321369171,1.7258453369140625
1757491400425144600,3.07214453125,10.536283493041992,0.419209748506546,1.436446189880371
1757491400435212000,3.0822119140625,9.822511672973633,0.12442366778850555,2.356642723083496
1757491400445252400,3.09225244140625,9.837400436401367,0.7686883807182312,2.727294921875
1757491400455293000,3.10229296875,8.937629699707031,1.9574843645095825,2.3348703384399414
1757491400465326300,3.112326416015625,7.935506820678711,2.311227560043335,2.3192331790924072
1757491400475392500,3.122392578125,7.678578853607178,2.3533506393432617,2.0725557804107666
1757491400485429000,3.132428955078125,8.229619026184082,1.9669115543365479,2.0685901641845703
1757491400495468300,3.14246826171875,9.396942138671875,1.3471873998641968,2.233191728591919
1757491400505510400,3.152510498046875,10.642301559448242,1.2387001514434814,2.3185598850250244
1757491400515551500,3.162551513671875,11.41832160949707,1.368884801864624,2.3349452018737793
1757491400525598700,3.1725986328125,11.245789527893066,1.389310359954834,2.3215527534484863
1757491400535609000,3.182609130859375,10.54832935333252,1.4879963397979736,2.369586229324341
1757491400565731300,3.2127314453125,8.320449829101562,2.9386582374572754,2.5412206649780273
1757491400585810700,3.232810791015625,8.48594856262207,1.4740052223205566,3.165433883666992
1757491400595863600,3.242863525390625,7.918672561645508,0.6039373874664307,3.2421979904174805
1757491400605892400,3.252892333984375,8.524629592895508,0.24600422382354736,3.279906749725342
1757491400615933200,3.26293310546875,9.076942443847656,0.6542156338691711,3.13932204246521
1757491400625981400,3.2729814453125,9.025167465209961,0.6190508008003235,3.517606019973755
1757491400636023800,3.28302392578125,9.454852104187012,0.5184195041656494,3.2082302570343018
1757491400646056700,3.293056640625,9.40636920928955,0.8159738779067993,2.9204771518707275
1757491400656083200,3.303083251953125,9.222764015197754,0.890568196773529,2.855010747909546
1757491400696246800,3.343246826171875,8.866103172302246,0.8340800404548645,2.6866683959960938
1757491400706288400,3.353288330078125,8.725443840026855,0.8965536952018738,2.5837924480438232
1757491400716327000,3.363326904296875,8.707412719726562,0.9371803402900696,2.361206531524658
1757491400726356700,3.373356689453125,8.788440704345703,0.9361328482627869,2.165555477142334
1757491400736405200,3.3834052734375,9.02127742767334,1.1179425716400146,1.8745851516723633
1757491400746469600,3.3934697265625,9.275436401367188,1.0502315759658813,1.7817349433898926
1757491400756503300,3.40350341796875,9.583540916442871,0.9625439047813416,1.6549171209335327
1757491400766563600,3.4135634765625,9.847352027893066,1.0021229982376099,1.567304253578186
1757491400776582000,3.423581787109375,10.131587982177734,0.8657283782958984,1.5031098127365112
1757491400786648600,3.433648681640625,10.175881385803223,0.8616881370544434,1.492186188697815
1757491400796684500,3.4436845703125,9.965415954589844,0.8982745409011841,1.4856021404266357
1757491400806729200,3.453729248046875,9.761235237121582,0.8936358094215393,1.5283236503601074
1757491400816769500,3.46376953125,9.53977108001709,0.9805004000663757,1.5039327144622803
1757491400826784500,3.473784423828125,9.319953918457031,1.1009587049484253,1.5069254636764526
1757491400836852000,3.48385205078125,9.048885345458984,1.2382512092590332,1.6086790561676025
1757491400846891000,3.49389111328125,8.965312957763672,1.3189058303833008,1.6597055196762085
1757491400856940000,3.50393994140625,9.017611503601074,1.3305776119232178,1.6748188734054565
1757491400866968000,3.513968017578125,9.15265941619873,1.2993781566619873,1.6407763957977295
1757491400877013000,3.524012939453125,9.412055969238281,1.226729154586792,1.505279541015625
1757491400887053600,3.534053466796875,9.603142738342285,1.155052661895752,1.4170681238174438
1757491400897068500,3.544068603515625,9.62596321105957,1.1730091571807861,1.3352164030075073
1757491400907093800,3.55409375,9.574861526489258,1.2078747749328613,1.3123217821121216
1757491400917171200,3.564171142578125,9.501015663146973,1.2539631128311157,1.357512354850769
1757491400927210800,3.574210693359375,9.431209564208984,1.2903250455856323,1.4363713264465332
1757491400937224000,3.584223876953125,9.37741470336914,1.2642881870269775,1.5046809911727905
1757491400947280400,3.5942802734375,9.306785583496094,1.3214497566223145,1.5438859462738037
1757491400957324000,3.604323974609375,9.1632080078125,1.4076409339904785,1.493682622909546
1757491400967340800,3.6143408203125,9.126023292541504,1.442880630493164,1.46038818359375
1757491400977385700,3.6243857421875,9.120786666870117,1.46308171749115,1.4841058254241943
1757491400987415800,3.634415771484375,9.170615196228027,1.452756643295288,1.509918212890625
1757491400997461500,3.64446142578125,9.197101593017578,1.4188637733459473,1.5057283639907837
1757491401007523600,3.654523681640625,9.17360782623291,1.424774408340454,1.4273930788040161
1757491401017564200,3.664564208984375,9.107393264770508,1.4888942241668701,1.4673463106155396
1757491401027604700,3.674604736328125,9.13185977935791,1.5627403259277344,1.5025112628936768
1757491401037645000,3.68464501953125,9.149815559387207,1.5387983322143555,1.5409680604934692
1757491401047675000,3.6946748046875,9.202637672424316,1.517849087715149,1.577479600906372
1757491401057705700,3.704705810546875,9.233388900756836,1.5278748273849487,1.6112977266311646
1757491401067743700,3.71474365234375,9.283890724182129,1.5310919284820557,1.5906476974487305
1757491401077824000,3.724823974609375,9.265934944152832,1.5477017164230347,1.5729156732559204
1757491401087880400,3.73488037109375,9.231293678283691,1.53939688205719,1.5622913837432861
1757491401097894400,3.744894287109375,9.250297546386719,1.4903157949447632,1.5904980897903442
1757491401107945700,3.75494580078125,9.176675796508789,1.5088708400726318,1.7234511375427246
1757491401117982500,3.764982421875,8.999131202697754,1.4989947080612183,1.845854640007019
1757491401128022800,3.775022705078125,8.67134952545166,1.4853776693344116,2.0346972942352295
1757491401138067000,3.78506689453125,8.426018714904785,1.4775217771530151,2.2577321529388428
1757491401148107800,3.795107666015625,8.365041732788086,1.3842226266860962,2.4887726306915283
1757491401158148400,3.8051484375,8.505475997924805,1.040505051612854,2.9118731021881104
1757491401168188700,3.815188720703125,8.660276412963867,0.7243208289146423,3.307589530944824
1757491401178229000,3.82522900390625,8.545878410339355,0.5363759994506836,3.6910359859466553
1757491401188244000,3.835243896484375,7.950695037841797,0.2696469724178314,4.215889930725098
1757491401198305800,3.845305908203125,6.896722316741943,-0.019378069788217545,5.035080909729004
1757491401208351000,3.85535107421875,5.578938961029053,-0.6407482028007507,5.775637626647949
1757491401218393900,3.865393798828125,4.591330528259277,-1.0027215480804443,5.367276668548584
1757491401228428000,3.875427978515625,4.908412933349609,-1.6714520454406738,5.294552803039551
1757491401238449200,3.88544921875,5.609090805053711,-2.83406138420105,5.751246452331543
1757491401248510000,3.895510009765625,5.58058500289917,-3.747823476791382,5.092466831207275
1757491401258552000,3.905552001953125,4.74845027923584,-4.815038681030273,3.7968297004699707
1757491401268597500,3.915597412109375,3.0544028282165527,-6.2061448097229,2.827626943588257
1757491401278635800,3.9256357421875,1.1976245641708374,-7.218143939971924,1.5156044960021973
1757491401288634000,3.935634033203125,0.2651578485965729,-7.507992267608643,-0.0022445640061050653
1757491401298716000,3.9457158203125,-0.07900865375995636,-7.668179035186768,-1.0984148979187012
1757491401308756500,3.955756591796875,-0.8120833039283752,-8.804227828979492,-0.9952397346496582
1757491401318793200,3.965793212890625,-1.5756092071533203,-9.662698745727539,0.4596118927001953
1757491401328838700,3.975838623046875,-0.9291747212409973,-9.28493881225586,1.413776159286499
1757491401338878500,3.98587841796875,0.6498013138771057,-8.374468803405762,1.8063503503799438
1757491401348918800,3.995918701171875,2.3769185543060303,-8.105195999145508,1.1783961057662964
1757491401358955800,4.005955810546875,4.536937236785889,-8.916007041931152,0.5460276007652283
1757491401369000200,4.016000244140625,8.898050308227539,-9.368361473083496,0.9594763517379761
1757491401379036700,4.02603662109375,12.08622932434082,-10.134132385253906,4.069544315338135
1757491401389085400,4.03608544921875,13.730298042297363,-12.047174453735352,9.605013847351074
1757491401399121400,4.046121337890625,14.41264533996582,-12.476110458374023,15.922264099121094
1757491401409141500,4.0561416015625,13.356801986694336,-11.486481666564941,21.00769805908203
1757491401419202800,4.066202880859375,10.58888053894043,-9.346065521240234,24.154203414916992
1757491401429239300,4.0762392578125,7.581389427185059,-6.102071762084961,25.584962844848633
1757491401439272400,4.0862724609375,4.277390956878662,-2.861819267272949,26.12807273864746
1757491401449324800,4.09632470703125,2.278531789779663,-0.1710357815027237,25.334394454956055
1757491401459365600,4.10636572265625,2.286163330078125,2.303072452545166,23.08017921447754
1757491401469408800,4.11640869140625,2.619406223297119,2.5147347450256348,22.132524490356445
1757491401479442200,4.126442138671875,2.180070400238037,1.9815759658813477,20.656049728393555
1757491401489466400,4.13646630859375,0.9056816101074219,2.2875101566314697,19.491046905517578
1757491401499523600,4.146523681640625,-1.2698994874954224,2.180219888687134,19.355998992919922
1757491401509555200,4.15655517578125,-3.716773748397827,2.0802619457244873,19.01467514038086
1757491401519608000,4.166608154296875,-5.929165840148926,2.2171056270599365,18.028263092041016
1757491401529649200,4.176649169921875,-6.588094711303711,2.706420660018921,17.021501541137695
1757491401539689500,4.186689453125,-5.885995388031006,2.756474256515503,16.089035034179688
1757491401549719600,4.196719482421875,-4.470722675323486,2.342202663421631,14.662015914916992
1757491401559749000,4.2067490234375,-3.27691388130188,1.726443886756897,13.249063491821289
1757491401569807000,4.21680712890625,-2.7059717178344727,0.8253262042999268,12.261829376220703
1757491401579852000,4.22685205078125,-2.336890459060669,0.32546180486679077,11.06106185913086
1757491401589892000,4.23689208984375,-2.7118074893951416,-0.31842881441116333,9.739912033081055
1757491401599907800,4.246907958984375,-3.6244473457336426,-2.769343137741089,9.938855171203613
1757491401609973200,4.25697314453125,-7.329923152923584,-5.33547830581665,7.586851119995117
1757491401619991300,4.2669912109375,-11.598785400390625,-6.216619491577148,5.113940238952637
1757491401630055000,4.277054931640625,-3.8994064331054688,-2.2461352348327637,5.50464391708374
1757491401640072400,4.287072509765625,0.189216747879982,-6.361393928527832,7.916128635406494
1757491401650135600,4.297135498046875,0.6931962370872498,-3.729043960571289,9.357512474060059
1757491401660172300,4.30717236328125,3.150918960571289,-1.7832313776016235,9.466524124145508
1757491401670216400,4.317216552734375,6.226944446563721,-4.642581462860107,10.468871116638184
1757491401680257300,4.32725732421875,4.774337291717529,-9.385719299316406,8.016535758972168
1757491401690284000,4.337283935546875,7.0767364501953125,-9.497873306274414,3.5982606410980225
1757491401700334300,4.347334228515625,3.9410805702209473,-8.978705406188965,2.5864861011505127
1757491401710379300,4.357379150390625,-2.439467191696167,-10.009408950805664,4.257114887237549
1757491401720417300,4.367417236328125,-3.3896658420562744,-8.891092300415039,6.632986068725586
1757491401730455800,4.377455810546875,-3.660210609436035,-9.109787940979004,8.238897323608398
1757491401740497400,4.387497314453125,-1.5049054622650146,-10.332850456237793,8.922367095947266
1757491401760577300,4.407577392578125,-2.6185832023620605,-7.850362777709961,8.990751266479492
1757491401770597000,4.41759716796875,-3.0329298973083496,-7.716512203216553,10.827702522277832
1757491401780662800,4.427662841796875,-3.0493152141571045,-6.3996262550354,11.59556770324707
1757491401790703600,4.43770361328125,-3.025672435760498,-2.3365912437438965,13.143045425415039
1757491401800739800,4.44773974609375,-5.6320600509643555,1.9396026134490967,16.30548667907715
1757491401810784800,4.45778466796875,2.893916368484497,-0.30885201692581177,14.06346607208252
1757491401820825000,4.4678251953125,5.2457709312438965,-0.046238020062446594,12.624774932861328
1757491401830860500,4.477860595703125,3.7013609409332275,-0.8617630004882812,10.360383987426758
1757491401840881400,4.48788134765625,0.628627598285675,-2.5712978839874268,8.465822219848633
1757491401850947000,4.497947021484375,-2.732457399368286,-4.441169261932373,6.993987083435059
1757491401860987400,4.5079873046875,-4.49444055557251,-7.233107566833496,5.5919575691223145
1757491401870982400,4.517982421875,-3.520374298095703,-10.154557228088379,3.983128547668457
1757491401881043200,4.528043212890625,-2.5976340770721436,-11.485584259033203,3.6477160453796387
1757491401891105500,4.53810546875,-2.0514566898345947,-12.060043334960938,4.517185211181641
1757491401901149700,4.548149658203125,-2.9357402324676514,-9.367837905883789,6.076334476470947
1757491401911190500,4.5581904296875,-1.9708020687103271,-7.7393317222595215,6.566098213195801
1757491401921232000,4.56823193359375,-2.6886136531829834,-5.052438735961914,6.214000701904297
1757491401931246000,4.57824609375,-2.0026001930236816,-4.577638626098633,7.085116386413574
1757491401941312800,4.588312744140625,-1.7720834016799927,-4.571279048919678,7.196222305297852
1757491401951352600,4.5983525390625,-3.0096611976623535,-4.387524127960205,6.569540023803711
1757491401961389600,4.6083896484375,-3.538031578063965,-4.38116455078125,6.635305404663086
1757491401971430700,4.6184306640625,-3.7012860774993896,-5.062389850616455,7.312864780426025
1757491401981454000,4.6284541015625,-0.23208792507648468,-6.511929512023926,8.526874542236328
1757491401991513300,4.638513427734375,0.7974936366081238,-6.117185115814209,7.818265438079834
1757491402001529300,4.648529296875,-5.700519561767578,-5.021763324737549,5.176862716674805
1757491402011571200,4.6585712890625,-4.499303340911865,-7.3081512451171875,5.52701473236084
1757491402021632300,4.66863232421875,-1.7319804430007935,-2.119990825653076,6.6635870933532715
1757491402031640300,4.678640380859375,-1.9363106489181519,-0.7527520060539246,6.464942932128906
1757491402041695700,4.68869580078125,-2.58813214302063,-2.828599691390991,7.530363082885742
1757491402051754800,4.698754638671875,-5.557615280151367,-6.227243900299072,6.520084381103516
1757491402061794600,4.708794677734375,-3.4454805850982666,-8.391752243041992,5.834669589996338
1757491402071813400,4.7188134765625,-0.5915922522544861,-9.3643217086792,6.376956462860107
1757491402081875700,4.728875732421875,-0.6209960579872131,-9.194108963012695,7.984363555908203
1757491402091895300,4.738895263671875,-3.6780176162719727,-7.581912994384766,9.57860279083252
1757491402101935400,4.748935302734375,-3.889230966567993,-4.36268424987793,10.357765197753906
1757491402112001300,4.759001220703125,0.24944588541984558,-1.7791911363601685,10.739042282104492
1757491402122041000,4.769041015625,0.5144540667533875,-1.8711434602737427,12.655974388122559
1757491402132057600,4.7790576171875,1.4193874597549438,-4.338293552398682,11.455058097839355
1757491402142201000,4.789201171875,-2.03507137298584,-5.677250862121582,10.089764595031738
1757491402152197000,4.799197021484375,-2.63594126701355,-5.950114727020264,7.9129862785339355
1757491402162218500,4.809218505859375,-1.4107085466384888,-5.724236965179443,7.510236740112305
1757491402172242200,4.8192421875,-0.8717138767242432,-6.1298298835754395,7.526472091674805
1757491402182286300,4.829286376953125,-1.878849744796753,-7.971718788146973,7.712097644805908
1757491402192326400,4.839326416015625,-2.4402899742126465,-7.203404903411865,7.275979042053223
1757491402202367700,4.84936767578125,-2.438270092010498,-5.3645830154418945,6.279991149902344
1757491402212403700,4.85940380859375,-1.8118869066238403,-4.468178749084473,5.9060468673706055
1757491402222444500,4.869444580078125,-6.049698829650879,-3.7345805168151855,6.319644927978516
1757491402232484000,4.879484130859375,-3.647341728210449,-3.6822822093963623,7.158438682556152
1757491402242525700,4.889525634765625,8.513631820678711,-4.41273832321167,8.963441848754883
1757491402252582400,4.89958251953125,4.4746880531311035,-2.583343744277954,9.626935005187988
1757491402262611000,4.90961083984375,-2.466850757598877,-3.497255325317383,11.03248119354248
1757491402272651500,4.919651611328125,-6.261361122131348,-1.0480618476867676,11.580828666687012
1757491402282666200,4.929666259765625,1.0406547784805298,-0.16392800211906433,12.538509368896484
1757491402292733000,4.93973291015625,-0.444049596786499,-1.1712135076522827,12.87751293182373
1757491402302773200,4.949773193359375,-1.5060276985168457,-1.508721113204956,11.11530590057373
1757491402312813800,4.959813720703125,-2.8547861576080322,0.16467618942260742,9.166275978088379
1757491402322854100,4.969854248046875,-1.2947393655776978,-0.2952350080013275,8.004414558410645
1757491402332894700,4.979894775390625,0.24981997907161713,-1.7789666652679443,7.461005687713623
1757491402342931700,4.989931640625,1.0701333284378052,-4.280308723449707,6.933234214782715
1757491402352976400,4.999976318359375,1.494804859161377,-7.216273784637451,6.295777797698975
1757491402363017000,5.010016845703125,1.2589012384414673,-8.562039375305176,5.885695934295654
1757491402373057300,5.020057373046875,0.24585458636283875,-8.048932075500488,5.5131731033325195
1757491402383093500,5.030093505859375,1.257030725479126,-6.709376335144043,5.244274139404297
1757491402393138700,5.040138671875,1.1717373132705688,-5.077727794647217,5.6291422843933105
1757491402403175400,5.050175537109375,-2.1599440574645996,-7.253458499908447,6.165742874145508
1757491402413219800,5.0602197265625,-0.8362497687339783,-8.697835922241211,7.189263820648193
1757491402423260700,5.0702607421875,1.4661492109298706,-10.168249130249023,7.864354133605957
1757491402433300200,5.08030029296875,2.6384103298187256,-10.776975631713867,7.949123859405518
1757491402443341600,5.090341552734375,0.30122050642967224,-11.025747299194336,7.2387189865112305
1757491402453405200,5.1004052734375,-3.10385799407959,-11.114856719970703,5.660865306854248
1757491402463420700,5.110420654296875,-4.323329925537109,-10.419041633605957,3.853841781616211
1757491402473459200,5.120459228515625,-3.9840264320373535,-9.276259422302246,2.7394156455993652
1757491402483478300,5.130478271484375,-2.361281394958496,-8.511536598205566,2.6379613876342773
1757491402493542400,5.14054248046875,-1.487472653388977,-7.029825210571289,4.886116981506348
1757491402503585000,5.1505849609375,-1.111657738685608,-5.33779764175415,8.224980354309082
1757491402513625600,5.16062548828125,-2.2183027267456055,-5.2178635597229,9.45410442352295
1757491402523667200,5.170667236328125,-2.1974282264709473,-7.588721752166748,8.111106872558594
1757491402533707300,5.180707275390625,-4.958990097045898,-6.160804748535156,6.462923049926758
1757491402543743700,5.19074365234375,-4.055179119110107,-5.464466094970703,6.150778770446777
1757491402553788000,5.200787841796875,-5.111770153045654,-6.884003162384033,5.9397149085998535
1757491402563829200,5.210829345703125,-5.8727521896362305,-8.952967643737793,5.601160049438477
1757491402573870000,5.2208701171875,-7.383119583129883,-10.85022258758545,4.301856517791748
1757491402583909600,5.23090966796875,-6.090998649597168,-10.722357749938965,2.4113352298736572
1757491402593951500,5.240951416015625,-3.9858222007751465,-11.50922679901123,0.8283189535140991
1757491402603991300,5.2509912109375,1.8418892621994019,-12.854543685913086,-0.46312838792800903
1757491402614008000,5.261008056640625,6.828113555908203,-11.82915210723877,-0.8946832418441772
1757491402624072400,5.271072509765625,9.317559242248535,-6.658574104309082,-0.24024318158626556
1757491402634088000,5.281087890625,1.2952631711959839,-5.879261493682861,5.697152614593506
1757491402644153900,5.29115380859375,0.2050783336162567,-7.3582048416137695,8.904634475708008
1757491402654194200,5.301194091796875,-0.5820154547691345,-7.242834091186523,9.9841947555542
1757491402664231700,5.311231689453125,0.2750339210033417,-7.055787086486816,9.315614700317383
1757491402674237400,5.321237548828125,0.7541735172271729,-7.55939245223999,8.094047546386719
1757491402684316200,5.331316162109375,0.8479962944984436,-8.22535514831543,6.770577907562256
1757491402694356500,5.3413564453125,0.9981576800346375,-8.417264938354492,5.899836540222168
1757491402704401700,5.351401611328125,0.9999533295631409,-8.951994895935059,5.371167182922363
1757491402714434600,5.3614345703125,0.23605331778526306,-8.924386978149414,4.068272590637207
1757491402724475000,5.371474853515625,-0.750582218170166,-8.72304916381836,3.717372179031372
1757491402734516200,5.38151611328125,-1.984643578529358,-8.058135032653809,4.10942268371582
1757491402744557000,5.39155712890625,-2.781538724899292,-7.25068998336792,5.029095649719238
1757491402754596600,5.4015966796875,-2.1927146911621094,-6.9496941566467285,6.1023712158203125
1757491402764641000,5.41164111328125,-1.8975545167922974,-7.662118911743164,6.926724910736084
1757491402774659600,5.42165966796875,-2.409090757369995,-8.965761184692383,7.024138927459717
1757491402784722400,5.431722412109375,-3.1203181743621826,-9.697564125061035,6.476016521453857
1757491402794763000,5.441762939453125,-3.480346202850342,-9.035642623901367,5.496488571166992
1757491402804803300,5.45180322265625,-2.2358102798461914,-7.259967803955078,4.8355393409729
1757491402814844700,5.4618447265625,-0.8393173217773438,-7.131279468536377,5.475539207458496
1757491402824892400,5.471892333984375,-0.8447791337966919,-8.229095458984375,5.32852029800415
1757491402834925300,5.48192529296875,-1.3710545301437378,-9.337461471557617,4.315174579620361
1757491402844962300,5.49196240234375,-1.9865140914916992,-9.339556694030762,4.928987979888916
1757491402855007000,5.502007080078125,0.9926210641860962,-8.587701797485352,3.1314661502838135
1757491402865047600,5.512047607421875,-0.3048866093158722,-8.017133712768555,3.550675868988037
1757491402875075000,5.522074951171875,-1.1898434162139893,-7.252485752105713,2.969184160232544
1757491402885128400,5.53212841796875,1.40180504322052,-6.920140743255615,3.1193454265594482
1757491402895169500,5.54216943359375,0.6188263297080994,-7.899444103240967,4.630685329437256
1757491402905209900,5.5522099609375,0.007257423829287291,-7.5394158363342285,5.931859016418457
1757491402915247400,5.562247314453125,-0.23762452602386475,-7.673940181732178,5.892653942108154
1757491402925268000,5.57226806640625,-0.8019079566001892,-7.098134517669678,5.501800537109375
1757491402935331600,5.58233154296875,0.18644845485687256,-7.443348407745361,5.733514308929443
1757491402945373000,5.592373046875,-0.2057517021894455,-7.818789482116699,5.95834493637085
1757491402955411500,5.602411376953125,-0.11050736904144287,-4.919710636138916,4.940435409545898
1757491402965449500,5.612449462890625,2.349609613418579,3.1068508625030518,2.1476738452911377
1757491402975469000,5.622468994140625,2.0225768089294434,0.6194248795509338,0.06090250611305237
1757491402985531100,5.63253125,0.262763649225235,-3.6534769535064697,0.4902876019477844
1757491402995575800,5.642575927734375,-1.4232780933380127,-7.715614318847656,2.2679076194763184
1757491403005616000,5.6526162109375,-3.6804118156433105,-10.899528503417969,4.310685157775879
1757491403015631000,5.662631103515625,-2.6033949851989746,-12.327370643615723,5.4392523765563965
1757491403025697300,5.672697265625,-0.8668506741523743,-12.638167381286621,6.2381672859191895
1757491403035738000,5.682738037109375,-1.3114240169525146,-12.808679580688477,7.324985504150391
1757491403045778700,5.69277880859375,-0.6537666916847229,-13.725957870483398,6.183325290679932
1757491403055819500,5.702819580078125,-0.6190508008003235,-11.044602394104004,4.519804000854492
1757491403065859000,5.712859130859375,-1.2577788829803467,-12.067599296569824,2.6663177013397217
1757491403075874800,5.722874755859375,-1.2000187635421753,-10.414029121398926,1.9564368724822998
1757491403085941000,5.73294091796875,-1.088015079498291,-8.998308181762695,3.99996280670166
1757491403095981800,5.74298193359375,0.13512276113033295,-8.092700958251953,4.273650169372559
1757491403106023200,5.753023193359375,-0.1346738487482071,-7.756091117858887,3.6280386447906494
1757491403116061700,5.763061767578125,-0.020724808797240257,-7.362095355987549,3.8377556800842285
1757491403126100500,5.7731005859375,-0.36810851097106934,-8.401702880859375,4.366949081420898
1757491403136140300,5.783140380859375,-0.4266168177127838,-6.459930419921875,3.3301849365234375
1757491403146159600,5.79315966796875,2.1039047241210938,-7.636979579925537,4.7544355392456055
1757491403156222500,5.803222412109375,0.6658125519752502,-7.249343395233154,3.2661399841308594
1757491403166262000,5.813261962890625,1.1841572523117065,-7.911415100097656,3.490746021270752
1757491403176293000,5.823293212890625,1.6935983896255493,-8.834604263305664,3.3807623386383057
1757491403186347800,5.83334765625,3.411438226699829,-10.055497169494629,2.50179123878479
1757491403196389000,5.84338916015625,1.3583353757858276,-10.56845474243164,1.7740286588668823
1757491403206390300,5.853390380859375,-2.3657705783843994,-10.918831825256348,0.9906757473945618
1757491403216466000,5.8634658203125,-4.4686279296875,-11.56212329864502,0.06651391834020615
1757491403226489600,5.873489501953125,-2.5738415718078613,-12.365602493286133,-0.7627028822898865
1757491403236538000,5.8835380859375,0.9080758094787598,-12.23579216003418,-1.213560938835144
1757491403246591500,5.893591552734375,1.582791805267334,-11.949385643005371,-1.3854197263717651
1757491403256632300,5.90363232421875,-0.5776011347770691,-13.214347839355469,-1.381454348564148
1757491403266673000,5.9136728515625,-1.7884687185287476,-16.602890014648438,-1.2924200296401978
1757491403276690400,5.9236904296875,-0.667982280254364,-16.513856887817383,-0.7755717039108276
1757491403286750000,5.93375,-0.21353286504745483,-14.743718147277832,2.937012195587158
1757491403296790500,5.94379052734375,0.5583727359771729,-12.586318016052246,9.460987091064453
1757491403306835200,5.953835205078125,2.8756606578826904,-15.169960975646973,13.955427169799805
1757491403316875800,5.963875732421875,1.789965033531189,-16.717363357543945,8.823680877685547
1757491403326891300,5.973891357421875,-1.806574821472168,-17.375768661499023,0.053270988166332245
1757491403336957000,5.98395703125,-1.3821277618408203,-16.800561904907227,-2.741884708404541
1757491403346997800,5.993997802734375,0.9970353841781616,-14.186542510986328,-0.28790274262428284
1757491403357034800,6.00403466796875,1.5934160947799683,-12.517484664916992,1.3183821439743042
1757491403367079700,6.01407958984375,3.759345531463623,-12.464214324951172,-2.45862078666687
1757491403377115100,6.024115234375,5.356053829193115,-11.578359603881836,-7.125817775726318
1757491403387160300,6.034160400390625,6.675258636474609,-9.359907150268555,-8.75185489654541
1757491403397175600,6.044175537109375,4.869357109069824,-8.593912124633789,-7.115492820739746
1757491403407242000,6.054241943359375,0.5946598649024963,-8.538994789123535,-4.357820987701416
1757491403417282300,6.0642822265625,0.1280897855758667,-7.2643818855285645,-2.61319637298584
1757491403427301400,6.07430126953125,-0.7715315222740173,-7.33815336227417,-5.881580829620361
1757491403437364500,6.084364501953125,-8.398335456848145,-5.037475109100342,-9.533486366271973
1757491403447410000,6.094409912109375,-7.569642543792725,1.2451344728469849,-4.004751205444336
1757491403457441000,6.10444091796875,-1.856329321861267,5.645976543426514,3.0745291709899902
1757491403467482600,6.114482666015625,-6.784120082855225,3.4203414916992188,7.757812023162842
1757491403477500700,6.124500732421875,-2.5661354064941406,1.7281646728515625,7.581314563751221
1757491403487563300,6.134563232421875,0.5369745492935181,0.7053168416023254,3.088744640350342
1757491403497608000,6.14460791015625,2.897582530975342,-0.04346972331404686,-2.052504301071167
1757491403507648300,6.154648193359375,4.649689197540283,-0.24188919365406036,-4.7695488929748535
1757491403517684700,6.164684814453125,5.698200225830078,-0.2455553114414215,-6.538115978240967
1757491403527722200,6.17472216796875,1.2829179763793945,7.225101947784424,-4.922104835510254
1757491403537770000,6.18477001953125,1.4256722927093506,14.006528854370117,-5.827037811279297
1757491403547811000,6.19481103515625,2.4956560134887695,5.218237400054932,-6.3325886726379395
1757491403557847600,6.20484765625,-0.7193079590797424,-3.165583610534668,-5.78334379196167
1757491403567892500,6.214892578125,-4.73415994644165,-17.502138137817383,-3.1307928562164307
1757491403577907500,6.224907470703125,-4.591555118560791,-25.301176071166992,-0.9870096445083618
1757491403587969800,6.2349697265625,-0.4679167866706848,-26.643274307250977,2.014571189880371
1757491403598014200,6.24501416015625,1.086593508720398,-25.366268157958984,4.912078857421875
1757491403608043800,6.255043701171875,2.9970169067382812,-24.965612411499023,4.944101333618164
1757491403618076400,6.265076416015625,1.2193220853805542,-25.58892822265625,5.986327171325684
1757491403628132000,6.275132080078125,-0.9430910348892212,-24.22947120666504,6.234576225280762
1757491403638176800,6.2851767578125,-0.9413701891899109,-20.782419204711914,6.2422075271606445
1757491403648217900,6.2952177734375,0.08753799647092819,-15.438186645507812,4.244770050048828
1757491403658237000,6.30523681640625,2.962674856185913,-10.378864288330078,-0.383670836687088
1757491403668296400,6.31529638671875,3.1147067546844482,-8.73681640625,-3.4723405838012695
1757491403678335700,6.325335693359375,3.5971384048461914,-9.116671562194824,-6.570138454437256
1757491403688380400,6.33538037109375,3.3435027599334717,-9.289727210998535,-7.745541572570801
1757491403698418400,6.34541845703125,3.057769775390625,-9.885359764099121,-8.699256896972656
1757491403708457700,6.355457763671875,0.5098153352737427,-9.81495475769043,-9.169044494628906
1757491403718514400,6.365514404296875,-1.4763246774673462,-10.386645317077637,-7.8617353439331055
1757491403728539000,6.375538818359375,-0.8026561141014099,-12.150723457336426,-3.9793877601623535
1757491403738558000,6.385557861328125,-0.08424597233533859,-13.28759479522705,-1.4212579727172852
1757491403748620300,6.395620361328125,0.16961422562599182,-14.330643653869629,-0.3578583300113678
1757491403758665200,6.405665283203125,1.0629507303237915,-14.892383575439453,0.47315409779548645
1757491403768681500,6.415681396484375,1.7304092645645142,-14.805818557739258,1.1531822681427002
1757491403778748000,6.425747802734375,0.9826701879501343,-14.097134590148926,1.2437130212783813
1757491403788761300,6.43576123046875,0.054168812930583954,-12.849231719970703,1.2421417236328125
1757491403798823700,6.44582373046875,-0.6795791983604431,-10.489521026611328,1.1289409399032593
1757491403808864300,6.4558642578125,-0.5306897759437561,-7.606752872467041,1.24184250831604
1757491403818909200,6.4659091796875,0.4875941276550293,-5.427804946899414,1.2315175533294678
1757491403828940500,6.4759404296875,2.080935478210449,-4.516137599945068,1.1192892789840698
1757491403838990300,6.485990234375,3.025073766708374,-4.802170276641846,1.2322657108306885
1757491403849031000,6.496031005859375,2.406247615814209,-6.192452907562256,1.4966753721237183
1757491403859071700,6.50607177734375,0.5621885061264038,-7.8285908699035645,1.617133617401123
1757491403869112300,6.5161123046875,1.0310779809951782,-9.225532531738281,1.7153706550598145
1757491403879128800,6.52612890625,0.41958385705947876,-10.027589797973633,1.5756092071533203
1757491403889189600,6.536189697265625,0.4770447015762329,-10.196381568908691,1.391629695892334
1757491403899234300,6.546234375,0.9180266857147217,-9.67654037475586,1.4193127155303955
1757491403909249300,6.556249267578125,0.18944120407104492,-9.55129337310791,1.4092121124267578
1757491403919315700,6.566315673828125,1.2752116918563843,-9.639430046081543,1.0372130870819092
1757491403929313000,6.57631298828125,1.3592331409454346,-9.512612342834473,0.474500834941864
1757491403939371800,6.586371826171875,1.0857704877853394,-9.361329078674316,0.12831424176692963
1757491403949412400,6.596412353515625,1.1300631761550903,-9.627459526062012,0.08215104788541794
1757491403959458300,6.606458251953125,1.3834744691848755,-9.642348289489746,0.38875851035118103
1757491403969495000,6.6164951171875,1.6038159132003784,-9.431807518005371,0.9894038438796997
1757491403979534600,6.62653466796875,1.8165256977081299,-9.816600799560547,1.2411690950393677
1757491403989584400,6.63658447265625,1.6895582675933838,-10.423905372619629,1.4381669759750366
1757491403999625000,6.646625,2.2305729389190674,-11.729044914245605,0.5402665734291077
1757491404009642800,6.656642822265625,1.6955437660217285,-10.334346771240234,0.180986687541008
1757491404019723000,6.666722900390625,1.8477251529693604,4.265569686889648,1.2604724168777466
1757491404029745000,6.676744873046875,-0.9110685586929321,17.919851303100586,3.431863784790039
1757491404039803600,6.6868037109375,3.7376480102539062,-2.7356746196746826,2.6152164936065674
1757491404049844700,6.6968447265625,5.329493045806885,-7.624858856201172,0.8411129713058472
1757491404059885300,6.70688525390625,6.860734462738037,-7.462801456451416,-0.29620763659477234
1757491404069900500,6.716900634765625,6.054112911224365,-11.211747169494629,-1.366565465927124
1757491404079957500,6.72695751953125,1.9938462972640991,-12.21035385131836,-2.0596120357513428
1757491404089982000,6.73698193359375,0.7107037901878357,-11.363704681396484,-3.194762945175171
1757491404100063000,6.74706298828125,0.6649147272109985,-10.93185043334961,-3.599756956100464
1757491404110088400,6.75708837890625,1.6279823780059814,-9.705719947814941,-3.850175619125366
1757491404120084000,6.767083984375,2.4550294876098633,-8.887351989746094,-3.454683303833008
1757491404130144500,6.77714453125,2.5462334156036377,-9.380706787109375,-2.942922830581665
1757491404140166100,6.787166259765625,3.500098466873169,-9.657835960388184,-2.20580792427063
1757491404150226000,6.797225830078125,3.955670118331909,-11.730915069580078,-1.0524013042449951
1757491404160245200,6.807245361328125,2.9345431327819824,-14.810307502746582,0.24899697303771973
1757491404170306800,6.817306884765625,1.450437307357788,-19.315147399902344,1.6492308378219604
1757491404180348000,6.827347900390625,0.17238251864910126,-15.968053817749023,0.9688286781311035
1757491404190412000,6.837412109375,0.2800467908382416,-13.204845428466797,0.39384618401527405
1757491404200451000,6.847451171875,1.0066121816635132,-13.590461730957031,-0.07511807978153229
1757491404210492700,6.85749267578125,1.0030957460403442,-14.337751388549805,-1.6051626205444336
1757491404220534500,6.867534423828125,0.39145198464393616,-13.223400115966797,-2.7403883934020996
1757491404230551000,6.877551025390625,0.7605331540107727,-11.650858879089355,-2.347290277481079
1757491404240614700,6.88761474609375,0.60550856590271,-10.948684692382812,-1.8251298666000366
1757491404250658300,6.897658203125,0.641197144985199,-11.40208625793457,-1.6601544618606567
1757491404260674300,6.90767431640625,0.4519803822040558,-9.99691390991211,-1.5626654624938965
1757491404270719500,6.917719482421875,-0.5520131587982178,-11.537583351135254,-0.9335141777992249
1757491404280765000,6.927764892578125,-0.7240215539932251,-12.211326599121094,-0.28805238008499146
1757491404290797300,6.93779736328125,-0.8186673521995544,-12.821623802185059,0.018480245023965836
1757491404300836600,6.947836669921875,-0.9177274107933044,-13.149628639221191,-0.027383681386709213
1757491404310902800,6.95790283203125,-1.533186912536621,-12.924274444580078,0.22281040251255035
1757491404320919800,6.967919921875,-1.2542624473571777,-12.747478485107422,0.3778349459171295
1757491404330980400,6.97798046875,-1.7271173000335693,-11.620482444763184,0.5487210750579834
1757491404341024500,6.9880244140625,-2.0766706466674805,-9.1777982711792,0.9569324851036072
1757491404351065300,6.9980654296875,-2.046593427658081,-7.527519702911377,1.6671873331069946
1757491404361080600,7.00808056640625,-2.2717981338500977,-8.077438354492188,2.5976340770721436
1757491404371146500,7.018146484375,-3.465532064437866,-9.802984237670898,3.488950490951538
1757491404381187300,7.028187255859375,-5.133916854858398,-11.734880447387695,3.7223851680755615
1757491404391224300,7.038224365234375,-5.168108940124512,-13.468432426452637,3.4495208263397217
1757491404401235000,7.04823486328125,-3.983053684234619,-13.455787658691406,2.447697162628174
1757491404411284000,7.058283935546875,-2.8482770919799805,-12.729446411132812,1.3017723560333252
1757491404421324800,7.06832470703125,-1.7769465446472168,-12.331560134887695,1.1658265590667725
1757491404431409400,7.078409423828125,-0.8657283782958984,-12.996475219726562,1.6070330142974854
1757491404441428200,7.08842822265625,0.2783259451389313,-14.056358337402344,1.3857190608978271
1757491404451468500,7.098468505859375,1.5206173658370972,-15.299397468566895,0.7904606461524963
1757491404461510700,7.1085107421875,3.040187358856201,-16.491186141967773,0.36728549003601074
1757491404471550200,7.11855029296875,4.925546169281006,-17.557653427124023,0.60550856590271
1757491404481554700,7.1285546875,8.408061981201172,-18.14849853515625,1.0256909132003784
1757491404491634700,7.138634765625,8.493579864501953,-17.64683723449707,1.6968904733657837
1757491404501650200,7.148650146484375,5.894824028015137,-16.78297996520996,2.355595111846924
1757491404511714300,7.15871435546875,3.543867349624634,-15.928548812866211,2.8960862159729004
1757491404521755100,7.168755126953125,1.8418892621994019,-15.51921558380127,3.237334728240967
1757491404531776500,7.178776611328125,0.41681554913520813,-15.47679328918457,4.031835556030273
1757491404541813200,7.188813232421875,-1.3594576120376587,-15.986234664916992,4.956670761108398
1757491404551877600,7.198877685546875,-0.12038345634937286,-15.08526611328125,5.455787181854248
1757491404561918500,7.20891845703125,0.13033436238765717,-13.472771644592285,4.50603723526001
1757491404571960600,7.218960693359375,1.0503063201904297,-11.591153144836426,2.5287258625030518
1757491404582002000,7.229001953125,0.7064391374588013,-10.7627592086792,0.4512321949005127
1757491404592061000,7.23906103515625,-0.18667291104793549,-10.777274131774902,-0.9838672876358032
1757491404602059800,7.249059814453125,-0.8375216722488403,-10.345569610595703,-1.915810227394104
1757491404612196000,7.259196044921875,-1.7870471477508545,-9.605687141418457,-2.5377042293548584
1757491404622217700,7.2692177734375,-2.293720006942749,-8.750582695007324,-2.6716299057006836
1757491404632215600,7.279215576171875,-1.953070044517517,-7.068880558013916,-2.3814826011657715
1757491404642242000,7.289241943359375,-1.8316391706466675,-5.41523551940918,-1.9043630361557007
1757491404652264200,7.29926416015625,-1.945214033126831,-4.797980308532715,-1.367463231086731
1757491404662327800,7.309327880859375,-1.4160206317901611,-3.7434091567993164,-0.5847837924957275
1757491404672343000,7.319343017578125,-1.4538789987564087,-2.7029788494110107,0.08589198440313339
1757491404682407700,7.32940771484375,-1.671900987625122,-2.676717519760132,0.9295487999916077
1757491404692446000,7.339446044921875,-1.473257064819336,-2.6832268238067627,1.232864260673523
1757491404702470400,7.349470458984375,-1.2367547750473022,-2.673275947570801,1.3296797275543213
1757491404712527400,7.35952734375,-1.2770822048187256,-2.8592004776000977,1.7641525268554688
1757491404722550800,7.36955078125,-1.5705214738845825,-3.314697504043579,1.977311372756958
1757491404732613000,7.379613037109375,-1.5846621990203857,-3.1502456665039062,1.8006641864776611
1757491404742653700,7.38965380859375,-1.3286323547363281,-2.567556858062744,1.7222540378570557
1757491404752710000,7.3997099609375,-0.9653121829032898,-3.0989201068878174,2.357764959335327
1757491404762735000,7.409735107421875,-1.712377905845642,-3.0131027698516846,3.089717388153076
1757491404772750000,7.41975,-2.459294080734253,-2.4494926929473877,3.7998225688934326
1757491404782816300,7.429816162109375,-3.134159564971924,-2.398092269897461,4.4823198318481445
1757491404792835800,7.4398359375,-3.7813422679901123,-2.663175344467163,4.669665813446045
1757491404802876400,7.44987646484375,-4.366500377655029,-3.128922462463379,4.621482849121094
1757491404812938800,7.459938720703125,-4.871302604675293,-3.6296846866607666,4.85678768157959
1757491404823001000,7.4700009765625,-5.009044170379639,-4.010063171386719,5.790376663208008
1757491404833020200,7.480020263671875,-5.577741622924805,-4.614449501037598,6.995408535003662
1757491404843057000,7.490056884765625,-5.635277271270752,-5.471723556518555,7.759607791900635
1757491404853075700,7.50007568359375,-5.195193290710449,-6.350470542907715,8.60124397277832
1757491404863142100,7.51014208984375,-5.023932933807373,-6.734216213226318,8.405742645263672
1757491404873176600,7.520176513671875,-4.863222122192383,-7.2072954177856445,7.90782356262207
1757491404883179800,7.5301796875,-4.459499835968018,-6.939069747924805,7.12731409072876
1757491404893264600,7.5402646484375,-6.260762691497803,-6.513276100158691,6.529960632324219
1757491404903305200,7.55030517578125,-7.4706573486328125,-6.380023956298828,6.2393646240234375
1757491404913320700,7.56032080078125,-8.125845909118652,-7.087136268615723,6.24003791809082
1757491404923411200,7.5704111328125,-8.205228805541992,-8.825101852416992,5.677475452423096
1757491404933426000,7.580426025390625,-7.27298641204834,-10.00372314453125,3.9432501792907715
1757491404943464200,7.590464111328125,-6.883479595184326,-10.319607734680176,2.4775497913360596
1757491404953467100,7.600467041015625,-6.651241779327393,-10.278681755065918,3.325172185897827
1757491404963545000,7.610545166015625,-4.908936500549316,-10.377817153930664,4.816385746002197
1757491404973590500,7.620590576171875,-1.634865641593933,-9.444602012634277,3.94946026802063
1757491404983631400,7.63063134765625,0.08147767931222916,-7.364414691925049,1.9125930070877075
1757491404993671700,7.640671630859375,-1.2587515115737915,-6.1331963539123535,0.7814823985099792
1757491405003683000,7.65068310546875,-3.4421138763427734,-6.395511150360107,0.5798457264900208
1757491405013753000,7.660753173828125,-4.542174816131592,-7.286229133605957,0.9142857789993286
1757491405023751700,7.670751708984375,-3.9460184574127197,-8.43514633178711,1.5350574254989624
1757491405033831000,7.680830810546875,-3.170895576477051,-9.636287689208984,2.2870612144470215
1757491405043875600,7.69087548828125,-2.1155765056610107,-11.067048072814941,3.286864757537842
1757491405053878000,7.7008779296875,-1.0337713956832886,-12.348170280456543,4.188506126403809
1757491405063957000,7.71095703125,-0.536750078201294,-13.227215766906738,4.843769550323486
1757491405073994000,7.720993896484375,-0.7407061457633972,-13.54968547821045,5.424887180328369
1757491405084039200,7.7310390625,-0.665513277053833,-13.330316543579102,5.721917629241943
1757491405094054000,7.741053955078125,-0.7870190143585205,-12.567913055419922,5.629815578460693
1757491405104095000,7.751094970703125,-0.8735095262527466,-11.432312965393066,5.147384166717529
1757491405114160600,7.76116064453125,-0.17500117421150208,-10.167725563049316,4.41393518447876
1757491405124182300,7.771182373046875,0.23036709427833557,-9.13185977935791,3.6553473472595215
1757491405134242600,7.78124267578125,0.40297406911849976,-8.587477684020996,3.1367034912109375
1757491405144279300,7.791279296875,0.9887304902076721,-8.478616714477539,2.9187562465667725
1757491405154298600,7.801298583984375,1.170764684677124,-8.574010848999023,2.843264102935791
1757491405164363300,7.81136328125,0.9424176216125488,-8.833332061767578,2.9308769702911377
1757491405174382600,7.821382568359375,0.42115503549575806,-9.220145225524902,3.0667479038238525
1757491405184442400,7.8314423828125,0.37574002146720886,-9.672201156616211,3.2297780513763428
1757491405194483700,7.841483642578125,0.29643210768699646,-10.209698677062988,3.3004817962646484
1757491405204506000,7.851506103515625,-0.23867198824882507,-10.61768627166748,3.121290922164917
1757491405214564400,7.861564453125,-0.06628946214914322,-10.728492736816406,3.035024642944336
1757491405224600000,7.87160009765625,-0.1950526237487793,-10.487800598144531,2.6803836822509766
1757491405234650000,7.881650146484375,0.045265376567840576,-10.065896987915039,2.769268274307251
1757491405244690400,7.8916904296875,-0.5467758178710938,-9.518373489379883,2.61820912361145
1757491405254706000,7.901705810546875,-0.2570773959159851,-9.139715194702148,2.9857940673828125
1757491405264764200,7.91176416015625,-1.4992940425872803,-8.331597328186035,2.656890630722046
1757491405274787300,7.921787353515625,-1.4629321098327637,-7.852906703948975,2.679036855697632
1757491405284832800,7.931832763671875,-1.6253637075424194,-7.151181221008301,2.548478126525879
1757491405294894800,7.941894775390625,-2.6507554054260254,-6.4613518714904785,1.6843209266662598
1757491405304910800,7.951910888671875,-1.6377836465835571,-6.729876518249512,1.6014964580535889
1757491405314950400,7.961950439453125,-1.9879355430603027,-7.258546352386475,1.644891381263733
1757491405324991700,7.97199169921875,-2.9257893562316895,-7.995885372161865,1.5261539220809937
1757491405335057400,7.982057373046875,-3.5230677127838135,-8.366164207458496,1.2280758619308472
1757491405345073000,7.992072998046875,-2.061183214187622,-9.09953784942627,2.091035842895508
1757491405355135200,8.00213525390625,-1.6604536771774292,-9.237204551696777,2.7923126220703125
1757491405365179600,8.0121796875,-1.506177306175232,-9.03639030456543,3.19865345954895
1757491405375240400,8.022240478515625,-0.6473323106765747,-8.49986457824707,3.347468137741089
1757491405385261600,8.032261474609374,-0.8204630017280579,-8.347683906555176,3.0342018604278564
1757491405395302100,8.04230224609375,-0.9478045701980591,-8.45587158203125,2.2298247814178467
1757491405405343000,8.052343017578124,-0.3048118054866791,-8.496797561645508,1.1263222694396973
1757491405415384300,8.06238427734375,0.5074211359024048,-8.56069278717041,0.012345102615654469
1757491405425422600,8.072422607421874,0.42287588119506836,-8.875380516052246,-1.0669161081314087
1757491405435440000,8.082440185546876,0.8348281979560852,-9.346439361572266,-1.809417963027954
1757491405445484800,8.09248486328125,1.7777695655822754,-9.810391426086426,-1.9446154832839966
1757491405455522000,8.10252197265625,2.326415777206421,-10.507403373718262,-1.4244003295898438
1757491405465587700,8.112587646484375,3.594968557357788,-10.78924560546875,-0.7937526702880859
1757491405475646700,8.122646728515624,4.737452030181885,-10.980332374572754,-0.1273415982723236
1757491405485643800,8.132643798828125,4.779050827026367,-11.38360595703125,1.036764144897461
1757491405495709700,8.142709716796874,3.3441760540008545,-12.467804908752441,2.465728521347046
1757491405505725000,8.152724853515625,2.6221745014190674,-13.827113151550293,3.527930974960327
1757491405515787300,8.162787353515625,2.000056266784668,-15.374590873718262,4.212522983551025
1757491405525832400,8.17283251953125,1.0755951404571533,-16.91189193725586,4.6157965660095215
1757491405535872500,8.18287255859375,0.3239654302597046,-18.05220603942871,4.845564842224121
1757491405545913900,8.192913818359376,-0.9976339340209961,-18.339284896850586,4.34255838394165
1757491405555954700,8.20295458984375,-1.7969231605529785,-17.882890701293945,3.035548448562622
1757491405565994800,8.212994873046876,-1.6571617126464844,-16.933141708374023,1.6642694473266602
1757491405576036600,8.22303662109375,-2.2123172283172607,-16.13370132446289,0.6972364187240601
1757491405586074600,8.23307470703125,-3.6309564113616943,-15.699752807617188,0.5134814381599426
1757491405596092200,8.243092041015625,-5.4503254890441895,-15.284882545471191,0.9459341168403625
1757491405606154800,8.25315478515625,-6.6874542236328125,-14.863054275512695,1.9914520978927612
1757491405616194800,8.26319482421875,-7.2201642990112305,-14.461352348327637,3.273472309112549
1757491405626238000,8.273238037109374,-6.745962619781494,-14.093393325805664,4.591180801391602
1757491405636279000,8.283279052734375,-4.891054630279541,-13.71241569519043,5.512275218963623
1757491405646322000,8.293322021484375,-1.386991024017334,-13.341464042663574,5.749076843261719
1757491405656359200,8.303359130859375,3.314173698425293,-13.234622955322266,5.235146522521973
1757491405666399700,8.313399658203124,6.48477029800415,-13.380819320678711,4.6490159034729
1757491405676428500,8.323428466796875,5.5190839767456055,-13.506963729858398,4.601356506347656
1757491405686466300,8.33346630859375,3.086949110031128,-13.724761009216309,4.680365085601807
1757491405696524500,8.343524658203124,0.13602058589458466,-14.179210662841797,5.211279392242432
1757491405706556200,8.35355615234375,-1.357287883758545,-14.419678688049316,5.246444225311279
1757491405716585500,8.36358544921875,-1.521515130996704,-14.038551330566406,4.24738883972168
1757491405726643500,8.3736435546875,-1.1581950187683105,-13.289240837097168,2.289006471633911
1757491405736644400,8.383644287109375,-1.545531988143921,-12.447903633117676,0.508917510509491
1757491405746725400,8.393725341796875,-0.5110872387886047,-11.11186408996582,-0.028655601665377617
1757491405756770000,8.40377001953125,0.986037015914917,-10.009782791137695,0.2712929844856262
1757491405766785500,8.41378564453125,1.3309516906738281,-9.620052337646484,0.8259995579719543
1757491405776844800,8.4238447265625,1.2488754987716675,-9.473931312561035,1.2461819648742676
1757491405786892300,8.433892333984375,1.3804069757461548,-9.424551010131836,1.8628385066986084
1757491405796948500,8.443948486328125,1.4192378520965576,-8.990975379943848,2.5696518421173096
1757491405806973700,8.4539736328125,0.8591443300247192,-8.179117202758789,2.772261142730713
1757491405817028400,8.4640283203125,0.4671685993671417,-6.815992832183838,2.984896183013916
1757491405827029800,8.47402978515625,0.24263738095760345,-5.581033706665039,2.4739584922790527
1757491405837096200,8.48409619140625,0.5942109227180481,-5.48848295211792,1.0123732089996338
1757491405847111200,8.494111083984375,1.1583447456359863,-5.205742835998535,-0.11005845665931702
1757491405857173800,8.504173828125,1.459191083908081,-4.307991981506348,-0.40851065516471863
1757491405867218400,8.514218505859375,0.12015900015830994,-3.8195748329162598,-0.2701706886291504
1757491405877240300,8.524240234375,-0.24727614223957062,-3.1203181743621826,-0.3174561858177185
1757491405887295700,8.534295654296875,-0.5723638534545898,-2.5591771602630615,-0.47569796442985535
1757491405897315600,8.544315673828125,-0.14357727766036987,-1.190816044807434,-0.8515127897262573
1757491405907356000,8.55435595703125,-0.15584756433963776,-0.49155953526496887,-0.5114613175392151
1757491405917393000,8.564392822265624,-0.12105682492256165,-0.05574000999331474,-0.021772271022200584
1757491405927426800,8.5744267578125,-0.05596446618437767,0.02124853990972042,0.6884077787399292
1757491405937466000,8.584466064453125,-0.4340238869190216,-0.7005284428596497,1.2533645629882812
1757491405947571500,8.594571533203125,-1.0765677690505981,-1.6336685419082642,1.7971476316452026
1757491405957581000,8.6045810546875,-1.759663462638855,-2.4379706382751465,2.646790027618408
1757491405967625700,8.614625732421874,-2.1272482872009277,-2.878204584121704,3.5493292808532715
1757491405977646300,8.624646240234375,-2.1272482872009277,-3.51393985748291,4.656647682189941
1757491405987703300,8.634703369140626,-1.871293067932129,-4.38692569732666,5.836764335632324
1757491405997766100,8.64476611328125,-1.8313398361206055,-5.34393310546875,6.6314897537231445
1757491406007788800,8.654788818359375,-2.1169979572296143,-6.076259613037109,6.660220146179199
1757491406027830800,8.674830810546876,-3.1297452449798584,-6.570512294769287,5.219509124755859
1757491406037911300,8.684911376953124,-4.129623889923096,-6.832228660583496,4.557213306427002
1757491406047927600,8.694927490234376,-4.71111536026001,-6.682067394256592,3.8157589435577393
1757491406057992000,8.704991943359374,-5.309441566467285,-6.565723896026611,2.3915083408355713
1757491406068008200,8.71500830078125,-4.64707088470459,-6.424915313720703,0.33197101950645447
1757491406078074000,8.72507421875,-4.770147800445557,-6.028375625610352,-1.5730652809143066
1757491406088115200,8.735115234375,-6.196194171905518,-5.522749900817871,-1.5637129545211792
1757491406098128100,8.745128173828125,-6.625803470611572,-7.238270282745361,1.2564321756362915
1757491406108196000,8.755196044921876,-5.214346885681152,-11.413758277893066,4.671162128448486
1757491406118218500,8.765218505859375,-3.8035635948181152,-15.709479331970215,6.227917194366455
1757491406128278300,8.7752783203125,-4.355052947998047,-20.48703384399414,6.00226354598999
1757491406138318800,8.78531884765625,-4.7800984382629395,-23.885602951049805,6.37186861038208
1757491406148353500,8.795353515625,-2.984222888946533,-23.367109298706055,7.69234561920166
1757491406158406000,8.805406005859375,-2.2973861694335938,-18.752361297607422,8.269124031066895
1757491406168425700,8.81542578125,-2.5773582458496094,-13.145289421081543,7.370175838470459
1757491406178478300,8.825478271484375,-1.5684266090393066,-8.5595703125,5.029544353485107
1757491406188519700,8.835519775390624,-0.12906242907047272,-5.234398365020752,2.6333224773406982
1757491406198573300,8.8455732421875,1.0335469245910645,-3.0441527366638184,1.2080992460250854
1757491406208578800,8.855578857421875,1.827224850654602,-2.4363245964050293,0.8788216710090637
1757491406218619400,8.865619384765624,1.4182652235031128,-3.339686870574951,1.3809306621551514
1757491406228685800,8.875685791015625,0.809165358543396,-5.279513835906982,2.2706010341644287
1757491406238704400,8.885704345703125,0.6316951513290405,-7.481431484222412,3.036072254180908
1757491406248767500,8.895767578125,0.562487781047821,-9.561244010925293,3.7095162868499756
1757491406258792200,8.905792236328125,0.3214963972568512,-11.35465145111084,4.540453910827637
1757491406268807400,8.915807373046874,-0.0322469025850296,-12.541352272033691,5.388076305389404
1757491406278873600,8.92587353515625,-0.36923080682754517,-12.869507789611816,6.2683939933776855
1757491406288914400,8.93591455078125,-0.9741408228874207,-12.269909858703613,7.0015435218811035
1757491406298971400,8.945971435546875,-1.119813084602356,-10.783708572387695,7.302614688873291
1757491406308993000,8.955992919921876,-0.9906757473945618,-9.148319244384766,7.257199287414551
1757491406319021600,8.966021484375,-0.8218845725059509,-8.245406150817871,6.80087947845459
1757491406329077500,8.976077392578125,-1.2205191850662231,-7.5609636306762695,5.950863361358643
1757491406339118300,8.986118408203126,-0.6733692288398743,-6.635230541229248,5.116858005523682
1757491406349175300,8.99617529296875,-0.3911527097225189,-5.982885360717773,4.181098937988281
1757491406359216400,9.00621630859375,-0.05985504388809204,-5.738452434539795,3.3721582889556885
1757491406369231600,9.016231689453125,-0.06815993040800095,-5.8598833084106445,2.7638065814971924
1757491406379297800,9.0262978515625,-0.4523544907569885,-6.175469398498535,2.2597522735595703
1757491406389324500,9.036324462890626,-0.9270797967910767,-6.8675432205200195,2.0779426097869873
1757491406399379700,9.046379638671874,-0.8012345433235168,-7.384241580963135,2.24433970451355
1757491406409418500,9.05641845703125,-1.4567221403121948,-7.874454498291016,2.3516297340393066
1757491406419438600,9.0664384765625,-2.003422975540161,-8.625335693359375,2.447622299194336
1757491406429494800,9.076494873046874,-1.5742623805999756,-8.582988739013672,2.4961049556732178
1757491406439517000,9.086516845703125,-1.8736872673034668,-8.619050979614258,2.487725257873535
1757491406449558300,9.096558349609374,-2.8488006591796875,-8.845078468322754,2.337489128112793
1757491406459599000,9.10659912109375,-2.071807384490967,-8.483853340148926,2.492363929748535
1757491406469665300,9.116665283203124,-1.4576947689056396,-8.381277084350586,2.874688148498535
1757491406479705300,9.126705322265625,-2.064624786376953,-8.478317260742188,3.0639047622680664
1757491406489743600,9.13674365234375,-2.558952808380127,-8.831536293029785,2.8021137714385986
1757491406499783700,9.14678369140625,-1.0232219696044922,-8.587926864624023,2.236558437347412
1757491406509828400,9.156828369140625,0.42848727107048035,-8.445621490478516,1.7577180862426758
1757491406519840800,9.1668408203125,0.3068319261074066,-8.829142570495605,1.7699135541915894
1757491406529909800,9.17690966796875,0.29381343722343445,-9.402628898620605,2.226832151412964
1757491406539951600,9.18695166015625,0.8274959921836853,-10.181343078613281,2.3860464096069336
1757491406549992400,9.196992431640625,1.427542805671692,-10.653898239135742,1.7814357280731201
1757491406560028700,9.207028564453125,2.32529354095459,-11.143736839294434,0.8750059008598328
1757491406570097000,9.217096923828125,2.743605613708496,-11.644648551940918,-0.5328595042228699
1757491406580113700,9.22711376953125,1.9731215238571167,-12.735133171081543,-1.1271452903747559
1757491406590154500,9.237154541015625,1.7763479948043823,-13.80092716217041,-0.6295254230499268
1757491406600170000,9.247169921875,0.8863035440444946,-15.100080490112305,0.8064718842506409
1757491406610214100,9.257214111328125,0.2552069425582886,-16.234783172607422,2.793135643005371
1757491406620253000,9.2672529296875,-0.2793734073638916,-17.27985191345215,4.634575843811035
1757491406630331400,9.277331298828125,-0.67815762758255,-17.921648025512695,5.990890979766846
1757491406640360400,9.2873603515625,-0.7006032466888428,-17.69255256652832,6.249464988708496
1757491406650406000,9.297406005859376,-0.363918662071228,-17.195606231689453,5.4578070640563965
1757491406660437000,9.30743701171875,0.3572597801685333,-16.492233276367188,4.408398628234863
1757491406670477300,9.317477294921876,0.46574705839157104,-15.036035537719727,3.539078950881958
1757491406680519000,9.327518798828125,-0.8241291046142578,-13.559112548828125,3.5363106727600098
1757491406690551600,9.337551513671874,-2.9800329208374023,-13.052589416503906,4.985027313232422
1757491406700592000,9.347592041015625,-4.511274337768555,-13.094786643981934,6.900313854217529
1757491406710645000,9.35764501953125,-4.606144905090332,-13.181127548217773,8.53061580657959
1757491406720685000,9.36768505859375,-3.40911865234375,-13.141324043273926,9.523386001586914
1757491406730726000,9.377725830078125,-1.3062615394592285,-12.949788093566895,9.81600284576416
1757491406740767700,9.387767822265625,1.1472715139389038,-12.869282722473145,9.58017349243164
1757491406750834200,9.397834228515626,2.7411365509033203,-13.02700138092041,8.764947891235352
1757491406760845300,9.40784521484375,2.5596261024475098,-13.393538475036621,7.283685207366943
1757491406770887400,9.417887451171875,1.815627932548523,-13.837738037109375,5.537264823913574
1757491406780930800,9.427930908203125,1.4053963422775269,-14.426711082458496,4.033406734466553
1757491406790935300,9.437935302734376,1.160290002822876,-15.218294143676758,2.276287317276001
1757491406801011500,9.448011474609375,0.6994061470031738,-15.54240894317627,0.2843862771987915
1757491406811035600,9.45803564453125,0.5729624032974243,-15.247248649597168,-1.1561750173568726
1757491406821068000,9.468068115234376,0.6426935195922852,-14.01984691619873,-2.015244483947754
1757491406831134000,9.478134033203125,1.1867010593414307,-12.282329559326172,-1.9798551797866821
1757491406841175800,9.48817578125,2.8366801738739014,-10.83436107635498,-0.6432172656059265
1757491406851204000,9.4982041015625,4.1705498695373535,-9.846529006958008,1.5736638307571411
1757491406861280300,9.5082802734375,3.2335939407348633,-9.269001960754395,4.078672409057617
1757491406871298000,9.518298095703125,1.4411598443984985,-8.982745170593262,6.286126136779785
1757491406881334800,9.528334716796875,0.04122516140341759,-8.707412719726562,6.825046062469482
1757491406891380500,9.53838037109375,1.0972177982330322,-8.448390007019043,5.321637153625488
1757491406901417700,9.548417724609376,1.632246971130371,-8.071677207946777,3.181819200515747
1757491406911457300,9.558457275390625,1.6187796592712402,-7.781828880310059,0.9741408228874207
1757491406921499000,9.568498779296876,2.5154829025268555,-6.912060260772705,-1.2751368284225464
1757491406931515000,9.578514892578125,2.424278974533081,-5.840281009674072,-2.7702410221099854
1757491406941561000,9.58856103515625,1.82692551612854,-4.696451187133789,-2.799570083618164
1757491406951604200,9.598604248046875,0.8149263858795166,-3.459397077560425,-1.8478000164031982
1757491406961644800,9.608644775390625,-0.17799393832683563,-2.5969605445861816,-0.9601497054100037
1757491406971669000,9.6186689453125,-0.6049100160598755,-2.0736780166625977,-1.014917016029358
1757491406981717500,9.628717529296875,-0.6594529151916504,-1.7704373598098755,-1.545831322669983
1757491406991771400,9.638771484375,-0.3000982105731964,-1.1805659532546997,-1.6968904733657837
1757491407001791700,9.648791748046875,0.10220248252153397,-0.22827216982841492,-1.2580782175064087
1757491407011851000,9.65885107421875,-0.061875149607658386,-0.2075473666191101,0.21443068981170654
1757491407021886700,9.66888671875,-0.40462008118629456,-1.1954548358917236,1.7623568773269653
1757491407031947800,9.67894775390625,-0.7828291654586792,-2.39928936958313,2.993126153945923
1757491407041965300,9.68896533203125,-0.6787561774253845,-3.438896656036377,4.380640983581543
1757491407052007000,9.6990068359375,-0.09816227108240128,-4.26706600189209,5.307197093963623
1757491407062070000,9.709070068359376,0.5604676604270935,-5.011438369750977,5.142221450805664
1757491407072098800,9.719098876953124,0.20051439106464386,-6.128931999206543,4.101267337799072
1757491407082130700,9.729130615234375,-1.7137994766235352,-6.824223041534424,1.853486180305481
1757491407092206800,9.739206787109374,-2.269927740097046,-7.279644966125488,-1.053074598312378
1757491407102237400,9.749237548828125,-0.8429086208343506,-7.481880187988281,-3.3540520668029785
1757491407112277200,9.75927734375,1.5313163995742798,-7.4870429039001465,-2.0510077476501465
1757491407122317800,9.76931787109375,1.5349076986312866,-8.978331565856934,3.6076130867004395
1757491407132359700,9.779359619140624,-3.0788686275482178,-11.455507278442383,7.636755466461182
1757491407142396700,9.789396728515625,-5.889511585235596,-14.880936622619629,7.183577537536621
1757491407152435500,9.799435546875,-2.7147254943847656,-17.74821662902832,4.6821608543396
1757491407162477000,9.80947705078125,-1.2207435369491577,-18.538602828979492,3.8027405738830566
1757491407172512300,9.81951220703125,-1.6373347043991089,-16.6844425201416,4.559981822967529
1757491407182540000,9.8295400390625,-1.9826983213424683,-12.714557647705078,5.03059196472168
1757491407192631000,9.839631103515625,-1.4105589389801025,-9.310676574707031,4.845415115356445
1757491407202608400,9.8496083984375,0.41464582085609436,-7.589095592498779,4.518531799316406
1757491407212658700,9.85965869140625,1.087715744972229,-7.55280876159668,4.508805751800537
1757491407222726700,9.8697265625,-0.1513584405183792,-8.621445655822754,4.761319160461426
1757491407232763100,9.87976318359375,-0.4899135231971741,-9.921795845031738,4.946869850158691
1757491407242808300,9.889808349609375,-0.7741501331329346,-10.966715812683105,4.918213844299316
1757491407252822800,9.89982275390625,-0.2702455222606659,-11.478251457214355,4.822895050048828
1757491407262889200,9.90988916015625,0.06853402405977249,-11.350536346435547,4.77501106262207
1757491407272925700,9.91992578125,-0.16662147641181946,-10.904316902160645,4.889483451843262
1757491407282971600,9.9299716796875,-0.8418611884117126,-10.341753959655762,4.952630519866943
1757491407293012000,9.940011962890624,-0.8476222157478333,-9.748815536499023,4.810250282287598
1757491407303048700,9.950048583984374,-0.7863456010818481,-9.368660926818848,4.341735363006592
1757491407313086000,9.9600859375,-0.4231003224849701,-8.94773006439209,3.60028076171875
1757491407323134500,9.970134521484376,-0.043020810931921005,-8.421829223632812,2.9599814414978027
1757491407333171000,9.9801708984375,0.4239233434200287,-8.015113830566406,2.5825207233428955
1757491407343215600,9.990215576171876,0.2933645248413086,-7.871611595153809,2.4589948654174805
1757491407353257000,10.000257080078125,0.47898998856544495,-7.763049602508545,2.700435161590576
1757491407363297500,10.010297607421874,0.4480898082256317,-7.803301811218262,3.0603134632110596
1757491407373335000,10.0203349609375,0.16834230720996857,-8.013617515563965,3.4029088020324707
1757491407383379200,10.030379150390624,0.002843114547431469,-8.107589721679688,3.6635026931762695
1757491407393417700,10.040417724609375,0.1306336373090744,-7.995212078094482,3.9612066745758057
1757491407403456800,10.050456787109376,0.15068507194519043,-7.736339092254639,4.141071319580078
1757491407413476000,10.06047607421875,-0.16160862147808075,-7.497592449188232,4.208407878875732
1757491407423542800,10.070542724609375,0.09689035266637802,-7.474398612976074,4.374879837036133
1757491407433558300,10.080558349609374,-0.46754270792007446,-7.268496990203857,4.056750297546387
1757491407443577900,10.090577880859374,-0.5706430077552795,-7.183278560638428,3.681758403778076
1757491407453665800,10.100665771484374,-0.7077859044075012,-7.236175537109375,3.804910182952881
1757491407463681500,10.110681640625,-0.624737024307251,-7.112799167633057,3.940182685852051
1757491407473747000,10.120746826171874,-0.7329998016357422,-7.3489274978637695,3.9188592433929443
1757491407483788000,10.1307880859375,-1.64653742313385,-7.921515464782715,3.332130193710327
1757491407493829000,10.1408291015625,-1.053074598312378,-7.984288692474365,2.5509471893310547
1757491407503870700,10.15087060546875,0.023119010031223297,-8.315286636352539,2.0341737270355225
1757491407513906700,10.16090673828125,0.2364274114370346,-8.770484924316406,1.8261024951934814
1757491407523951600,10.17095166015625,1.442581295967102,-9.147272109985352,1.854982614517212
1757491407533972000,10.180971923828125,1.1849054098129272,-9.84570598602295,1.9266589879989624
1757491407544019700,10.191019775390625,2.802412986755371,-9.705719947814941,2.125303030014038
1757491407554050300,10.20105029296875,2.9521255493164062,-10.272247314453125,2.2055087089538574
1757491407564114400,10.211114501953125,1.5147814750671387,-10.845359802246094,1.6379332542419434
1757491407574154200,10.221154296875,1.66120183467865,-11.47226619720459,0.8586205840110779
1757491407584197000,10.231197021484375,1.900696873664856,-12.35325813293457,0.48407766222953796
1757491407594237200,10.2412373046875,2.2824223041534424,-13.353959083557129,0.876502275466919
1757491407604277800,10.25127783203125,1.8852094411849976,-14.182726860046387,1.7545757293701172
1757491407614318800,10.26131884765625,0.9698013067245483,-14.922086715698242,2.8302457332611084
1757491407624359700,10.271359619140625,0.47300446033477783,-15.374441146850586,3.9392848014831543
1757491407634357000,10.28135693359375,-0.665363609790802,-15.926155090332031,4.79049825668335
1757491407644437000,10.29143701171875,-1.1840075254440308,-16.173805236816406,4.788852214813232
1757491407654479000,10.30147900390625,-0.37080198526382446,-15.90430736541748,4.127005100250244
1757491407664519400,10.31151953125,-0.6073042154312134,-15.535077095031738,3.3895163536071777
1757491407674559500,10.3215595703125,-1.1990461349487305,-14.755465507507324,3.0597896575927734
1757491407684570600,10.331570556640624,-2.1371991634368896,-13.398177146911621,3.4168999195098877
1757491407694645000,10.34164501953125,-3.121739625930786,-12.259360313415527,4.746579647064209
1757491407704654000,10.351654052734375,-3.6397104263305664,-11.745803833007812,6.62468147277832
1757491407714727200,10.36172705078125,-3.4747347831726074,-11.413383483886719,8.460286140441895
1757491407724763400,10.371763427734376,-2.0941781997680664,-10.792238235473633,9.731232643127441
1757491407734808600,10.38180859375,0.318054735660553,-10.025943756103516,10.076072692871094
1757491407744845600,10.391845458984376,1.9167829751968384,-9.817723274230957,9.751434326171875
1757491407754890500,10.401890380859374,1.8961329460144043,-10.34250259399414,8.905532836914062
1757491407764931300,10.411931396484375,1.0922796726226807,-11.41136360168457,7.458162784576416
1757491407774972400,10.421972412109374,0.20260931551456451,-12.869657516479492,5.5575408935546875
1757491407785013000,10.432012939453125,-1.6770634651184082,-14.555474281311035,3.601552724838257
1757491407795053600,10.442053466796875,-3.076399564743042,-15.92361068725586,1.492709994316101
1757491407805094100,10.45209423828125,-2.09672212600708,-16.732402801513672,-0.4528034031391144
1757491407815131400,10.46213134765625,-0.9979332089424133,-16.83318328857422,-1.4228291511535645
1757491407825150700,10.472150634765624,-0.4456208050251007,-15.832033157348633,-1.4449007511138916
1757491407835191000,10.48219091796875,-0.26074352860450745,-14.114492416381836,-1.1347019672393799
1757491407845232400,10.492232421875,-0.4486883580684662,-12.297368049621582,-0.5535843372344971
1757491407855274200,10.502274169921876,-0.053345806896686554,-10.66137981414795,0.2825157940387726
1757491407865339100,10.512339111328124,0.39392098784446716,-9.766472816467285,1.522712230682373
1757491407875343000,10.522343017578125,-0.3680337071418762,-9.421856880187988,2.835183620452881
1757491407885398800,10.532398681640625,-1.4744541645050049,-9.256507873535156,4.038344860076904
1757491407895436500,10.5424365234375,-1.5262287855148315,-9.368810653686523,4.560505390167236
1757491407905499000,10.552498779296876,-0.10631752014160156,-9.543063163757324,4.385653972625732
1757491407915542800,10.562542724609376,0.8088660836219788,-9.66067886352539,3.9737014770507812
1757491407925558800,10.572558837890625,0.9633669257164001,-9.49465560913086,3.4252047538757324
1757491407935625200,10.582625244140624,0.997409462928772,-8.645387649536133,2.8436381816864014
1757491407945667300,10.592667236328126,0.36908116936683655,-7.658751964569092,1.9629461765289307
1757491407955676700,10.6026767578125,0.7110779285430908,-6.455216884613037,0.8776245713233948
1757491407965748500,10.61274853515625,1.0039186477661133,-4.841075897216797,0.08282441645860672
1757491407975762700,10.6227626953125,-0.2314893752336502,-4.059817790985107,-0.37633857131004333
1757491407985803800,10.6328037109375,-0.7741501331329346,-3.4146554470062256,-0.7943512201309204
1757491407995870000,10.642869873046875,-0.7104793787002563,-2.7795934677124023,-1.3082815408706665
1757491408005885200,10.65288525390625,-0.7141454815864563,-2.370558977127075,-1.4570213556289673
1757491408015952600,10.66295263671875,-0.7662193775177002,-2.0744261741638184,-1.1875240802764893
1757491408025967000,10.672967041015625,-1.0251672267913818,-1.8046295642852783,-1.1129297018051147
1757491408036033500,10.683033447265625,-0.732700526714325,-1.5532383918762207,-0.34169748425483704
1757491408046034700,10.69303466796875,-0.9862614870071411,-1.8097171783447266,0.9369558691978455
1757491408056068900,10.70306884765625,-1.566107153892517,-2.2917747497558594,2.2741174697875977
1757491408066152400,10.71315234375,-1.6620997190475464,-2.466775894165039,3.4356045722961426
1757491408076170800,10.723170654296876,-1.5833154916763306,-2.8609962463378906,4.526911735534668
1757491408086235100,10.733235107421875,-0.8516624569892883,-3.5737948417663574,5.3027825355529785
1757491408096252700,10.743252685546874,-0.378433495759964,-4.1932196617126465,5.5983171463012695
1757491408106319600,10.753319580078125,-1.0726771354675293,-4.677297592163086,5.906121730804443
1757491408116315400,10.7633154296875,-2.3859715461730957,-5.070470333099365,6.114865779876709
1757491408126406000,10.773406005859375,-3.704653024673462,-5.3756561279296875,5.91128396987915
1757491408136415500,10.78341552734375,-4.677970886230469,-5.6967034339904785,5.424363136291504
1757491408146478600,10.793478515625,-5.0317888259887695,-5.930063724517822,4.392237663269043
1757491408156537900,10.803537841796874,-5.190105438232422,-6.002413272857666,2.806602954864502
1757491408166561000,10.81356103515625,-4.836885929107666,-6.070723056793213,1.2663081884384155
1757491408176603600,10.823603759765625,-4.877512454986572,-5.6536078453063965,-0.04810849204659462
1757491408186620000,10.833619873046874,-6.386533260345459,-5.931560039520264,1.0859200954437256
1757491408196686300,10.843686279296875,-3.8308722972869873,-8.080879211425781,5.329193592071533
1757491408206727000,10.853726806640625,0.3454384207725525,-11.649961471557617,9.33588981628418
1757491408216768300,10.863768310546876,-1.5796494483947754,-15.017854690551758,11.311406135559082
1757491408226805000,10.873804931640626,-3.3621325492858887,-17.608604431152344,10.030208587646484
1757491408236849700,10.883849609375,-3.566537618637085,-17.511266708374023,8.46859073638916
1757491408246890200,10.89389013671875,-2.1017351150512695,-14.749105453491211,8.195127487182617
1757491408256927700,10.903927734375,-2.0351462364196777,-10.824410438537598,7.686659336090088
1757491408266972000,10.913971923828125,-2.913144826889038,-7.620070457458496,6.301763534545898
1757491408277012700,10.9240126953125,-1.8774281740188599,-5.441496849060059,4.361786365509033
1757491408287049700,10.9340498046875,-0.33840546011924744,-4.243797302246094,2.8912978172302246
1757491408297094400,10.944094482421875,0.07399579882621765,-4.054505825042725,2.3894882202148438
1757491408307109600,10.954109619140626,0.3107225000858307,-4.726004600524902,2.6559927463531494
1757491408317176600,10.964176513671875,0.4721066355705261,-5.961038589477539,3.193416118621826
1757491408327217700,10.9742177734375,0.8247276544570923,-7.43025541305542,3.702183961868286
1757491408337258000,10.984258056640625,1.2069768905639648,-8.966509819030762,4.24738883972168
1757491408347298600,10.994298583984374,1.2673556804656982,-10.493486404418945,4.932504177093506
1757491408357336300,11.00433642578125,1.3638719320297241,-11.67951488494873,5.726032733917236
1757491408367380500,11.01438037109375,0.885630190372467,-12.13905143737793,6.585476398468018
1757491408377418500,11.02441845703125,0.6620715856552124,-11.6198091506958,7.181931495666504
1757491408387458000,11.0344580078125,0.5225345492362976,-10.395624160766602,7.4007768630981445
1757491408397499100,11.0444990234375,0.26418519020080566,-9.009231567382812,7.233556747436523
1757491408407542000,11.0545419921875,0.02685995027422905,-7.970821380615234,6.650942802429199
1757491408417580800,11.064580810546875,0.19198505580425262,-7.5685954093933105,5.636175155639648
1757491408427625700,11.074625732421875,0.4495861828327179,-7.420080184936523,4.223147392272949
1757491408437665800,11.084665771484374,1.0758943557739258,-7.0161333084106445,2.96162748336792
1757491408447706400,11.094706298828125,1.22411048412323,-6.773495674133301,2.122459888458252
1757491408457747500,11.10474755859375,1.4513351917266846,-6.672266006469727,1.622146487236023
1757491408467788300,11.114788330078126,1.538199782371521,-6.69718074798584,1.5511434078216553
1757491408477809000,11.124808837890624,1.401879906654358,-6.881983280181885,1.8070985078811646
1757491408487866000,11.1348662109375,1.739237904548645,-7.149385452270508,2.677241325378418
1757491408497910500,11.14491064453125,1.222688913345337,-7.609745502471924,3.478400945663452
1757491408507934000,11.154933837890624,0.889296293258667,-8.278475761413574,4.335824489593506
1757491408517993000,11.164992919921875,0.6548141837120056,-9.233463287353516,5.098976135253906
1757491408528033800,11.17503369140625,-0.0933738648891449,-10.18111801147461,5.485116004943848
1757491408538074000,11.18507421875,0.17747020721435547,-10.574889183044434,5.599364280700684
1757491408548110600,11.195110595703126,-0.364442378282547,-10.75610065460205,5.204470634460449
1757491408558152000,11.20515185546875,-1.190816044807434,-10.16645336151123,4.221800804138184
1757491408568197600,11.21519775390625,-1.380332112312317,-9.494880676269531,3.1687259674072266
1757491408578237200,11.2252373046875,-0.6609492897987366,-8.863110542297363,2.673275947570801
1757491408588231200,11.235231201171874,-1.7652748823165894,-8.205602645874023,2.346317768096924
1757491408598295300,11.24529541015625,-2.3271639347076416,-7.571139335632324,2.4128315448760986
1757491408608328700,11.25532861328125,-1.9345897436141968,-7.655235290527344,3.153836965560913
1757491408618405400,11.2654052734375,-1.8516157865524292,-7.56320858001709,3.847407341003418
1757491408628437200,11.275437255859375,-1.4850784540176392,-7.390152454376221,4.256142616271973
1757491408638478000,11.28547802734375,0.31857845187187195,-6.972289562225342,4.769698619842529
1757491408648521700,11.295521728515626,-0.03681085258722305,-6.979397296905518,4.852448463439941
1757491408658573600,11.305573486328125,-0.44921210408210754,-7.102174758911133,4.692485809326172
1757491408668604200,11.315604248046874,-0.20859482884407043,-7.161506175994873,4.0417866706848145
1757491408678641400,11.325641357421874,-0.17043723165988922,-7.8680949211120605,2.9759926795959473
1757491408688686000,11.33568603515625,0.7531260848045349,-8.59660530090332,1.9978865385055542
1757491408698727200,11.34572705078125,1.3413515090942383,-8.941145896911621,1.46540105342865
1757491408708745700,11.355745849609375,2.090886354446411,-9.54897403717041,1.5007903575897217
1757491408718804500,11.365804443359375,2.9402294158935547,-10.119991302490234,1.4953285455703735
1757491408728850000,11.375849853515625,3.5719244480133057,-10.524761199951172,1.3118728399276733
1757491408738886000,11.385885986328125,5.117156982421875,-11.371335983276367,0.6057330369949341
1757491408748931000,11.39593115234375,5.455787181854248,-12.211400985717773,-0.3513490855693817
1757491408758971100,11.40597119140625,5.426084041595459,-13.22512149810791,-0.8341548442840576
1757491408769012700,11.4160126953125,5.278167247772217,-14.324284553527832,-0.6583306193351746
1757491408779053800,11.4260537109375,4.682684421539307,-15.43631649017334,0.6007201671600342
1757491408789090000,11.436090087890625,3.7095911502838135,-16.456695556640625,2.5124154090881348
1757491408799131100,11.446131103515626,2.2025158405303955,-17.468095779418945,4.248885154724121
1757491408809175600,11.456175537109376,0.792555570602417,-18.156278610229492,5.49656343460083
1757491408819216600,11.466216552734375,-0.7083844542503357,-18.864290237426758,6.671817302703857
1757491408829257700,11.4762578125,-1.3090298175811768,-18.934694290161133,7.101351737976074
1757491408839298300,11.48629833984375,-1.622370958328247,-18.149545669555664,6.546046733856201
1757491408849339100,11.496339111328124,-1.1918635368347168,-17.297882080078125,5.604676723480225
1757491408859376000,11.506376220703125,-2.4432828426361084,-16.084321975708008,4.155660629272461
1757491408869417000,11.5164169921875,-3.4087445735931396,-15.355661392211914,3.3762733936309814
1757491408879457800,11.526457763671875,-2.2077531814575195,-14.485817909240723,3.8836944103240967
1757491408889499000,11.536498779296876,-1.9101988077163696,-13.25400161743164,4.866663932800293
1757491408899540700,11.546540771484375,-1.735422134399414,-11.258434295654297,5.736058235168457
1757491408909583400,11.556583251953125,-2.236558437347412,-9.468618392944336,6.644208908081055
1757491408919625200,11.566625244140624,-1.2337620258331299,-8.138415336608887,8.074444770812988
1757491408929662000,11.576661865234374,0.019527707248926163,-7.286004543304443,9.708039283752441
1757491408939706000,11.5867060546875,1.6427216529846191,-7.103895664215088,10.84012222290039
1757491408949747200,11.596747314453125,2.9153146743774414,-7.742324352264404,11.130568504333496
1757491408959788500,11.60678857421875,3.106102705001831,-9.02127742767334,10.639083862304688
1757491408969829400,11.616829345703126,2.0374655723571777,-10.30905818939209,9.604340553283691
1757491408979870200,11.6268701171875,0.377909779548645,-11.22828197479248,8.318354606628418
1757491408989910000,11.636909912109376,-1.884012222290039,-12.329689979553223,6.859612464904785
1757491408999947000,11.646947021484374,-2.748169422149658,-13.870583534240723,4.7590742111206055
1757491409009991700,11.65699169921875,-2.832789421081543,-15.322068214416504,2.1972038745880127
1757491409020032800,11.66703271484375,-2.5412955284118652,-15.389105796813965,-0.3331681191921234
1757491409030073300,11.6770732421875,-1.6101754903793335,-13.991939544677734,-1.880570650100708
1757491409040114000,11.687114013671875,-0.3207482099533081,-12.275595664978027,-2.132784843444824
1757491409050155000,11.697155029296875,0.6766612529754639,-10.82583236694336,-1.7410335540771484
1757491409060192800,11.70719287109375,-0.02985270321369171,-9.895310401916504,-0.6062567830085754
1757491409070237200,11.7172373046875,-1.9036147594451904,-9.434127807617188,1.1251251697540283
1757491409080278000,11.727278076171874,-2.311901092529297,-9.134477615356445,2.745924949645996
1757491409090318000,11.737318115234375,-0.2993500232696533,-8.814104080200195,3.806705951690674
1757491409100360200,11.747360107421875,1.2749872207641602,-8.614787101745605,4.3640313148498535
1757491409110385000,11.757385009765626,1.3929016590118408,-8.477718353271484,4.619761943817139
1757491409120437500,11.7674375,0.7805097699165344,-8.216451644897461,4.620809078216553
1757491409130477600,11.7774775390625,0.838569164276123,-7.658751964569092,4.075305461883545
1757491409140521700,11.787521728515625,1.2352584600448608,-7.227795600891113,2.4857051372528076
1757491409150573000,11.797572998046874,1.4067431688308716,-6.278793811798096,0.7562684416770935
1757491409160595500,11.807595458984375,1.1617863178253174,-4.927940368652344,-0.003217208432033658
1757491409170645000,11.81764501953125,-0.1735047996044159,-4.147356033325195,-0.28887540102005005
1757491409180686000,11.82768603515625,-0.3791816830635071,-3.0201358795166016,-0.7362170219421387
1757491409190722300,11.837722412109375,-0.6695534586906433,-1.9651906490325928,-1.033247709274292
1757491409200767000,11.84776708984375,-1.094075322151184,-1.2058546543121338,-1.1646294593811035
1757491409210807800,11.857807861328125,-1.3984382152557373,-0.5508908629417419,-1.2017396688461304
1757491409220848600,11.8678486328125,-1.9558383226394653,-0.8216601014137268,-0.8465747833251953
1757491409230885400,11.877885498046876,-1.2805237770080566,-0.5874024033546448,-0.09397241473197937
1757491409240930300,11.887930419921876,-1.0899603366851807,-1.199944019317627,1.3437457084655762
1757491409250967000,11.897967041015624,-0.7336731553077698,-2.0026001930236816,3.0335283279418945
1757491409260969700,11.9079697265625,-0.7122750282287598,-2.7130045890808105,4.749423027038574
1757491409271052800,11.918052734375,-0.9034370183944702,-3.646294355392456,6.204648494720459
1757491409281094100,11.92809423828125,-0.6663362383842468,-3.8814499378204346,7.149460315704346
1757491409291135000,11.938135009765626,-1.2615946531295776,-4.737601280212402,8.066514015197754
1757491409301172000,11.948171875,-1.3732991218566895,-5.385307788848877,8.221314430236816
1757491409311215600,11.958215576171876,-1.1954548358917236,-5.950638771057129,7.544877529144287
1757491409321252600,11.968252685546876,-1.3886369466781616,-6.453944683074951,6.730998992919922
1757491409331297300,11.97829736328125,-2.287285566329956,-6.822203159332275,6.108581066131592
1757491409341338000,11.988338134765625,-3.7061493396759033,-7.212457656860352,5.5015764236450195
1757491409351379500,11.99837939453125,-5.366977214813232,-7.980098724365234,4.47670841217041
1757491409361417700,12.008417724609375,-5.739799499511719,-8.553359985351562,2.8540380001068115
1757491409371456800,12.018456787109375,-5.965752124786377,-8.519243240356445,2.041505813598633
1757491409381498400,12.028498291015625,-3.92596697807312,-8.909872055053711,4.2060136795043945
1757491409391540000,12.0385400390625,-0.26568156480789185,-9.941473960876465,7.582960605621338
1757491409401580300,12.048580322265625,-0.5822399258613586,-11.534814834594727,9.530718803405762
1757491409411623200,12.058623046875,-2.589329242706299,-12.672734260559082,7.89278507232666
1757491409421664300,12.068664306640626,-3.2496798038482666,-12.601731300354004,5.237690448760986
1757491409431691500,12.07869140625,-2.1924901008605957,-11.60596752166748,4.188207149505615
1757491409441744400,12.088744384765626,-2.774430751800537,-10.17221450805664,4.1611223220825195
1757491409451783400,12.098783447265625,-3.0820858478546143,-9.062128067016602,4.082936763763428
1757491409461802500,12.108802490234375,-2.1645078659057617,-8.44771671295166,3.6675429344177246
1757491409471864600,12.118864501953125,-1.2386252880096436,-8.275782585144043,3.4030585289001465
1757491409481906400,12.128906494140624,-0.3564367890357971,-8.577601432800293,3.569979190826416
1757491409491941400,12.13894140625,0.2866308391094208,-9.166874885559082,4.012906551361084
1757491409501989600,12.14898974609375,0.8898948431015015,-9.924714088439941,4.50139856338501
1757491409512029700,12.15902978515625,1.3491326570510864,-10.560449600219727,4.96392822265625
1757491409522070000,12.169070068359375,1.3384336233139038,-10.836156845092773,5.446659088134766
1757491409532115200,12.179115234375,1.1814637184143066,-10.616114616394043,5.914201736450195
1757491409542207500,12.18920751953125,0.8450784087181091,-9.834108352661133,6.290989398956299
1757491409552216800,12.199216796875,0.20036475360393524,-8.799513816833496,6.60044002532959
1757491409562248200,12.209248291015625,-0.22303485870361328,-7.890017032623291,6.80776309967041
1757491409572274000,12.21927392578125,-0.39534255862236023,-7.354837894439697,6.799083709716797
1757491409582318000,12.229318115234374,-0.5310638546943665,-7.168763637542725,6.633883953094482
1757491409592359700,12.239359619140625,-0.7257423996925354,-7.342193603515625,6.258892059326172
1757491409602397000,12.24939697265625,-0.5493196249008179,-7.606603145599365,5.572579383850098
1757491409612436000,12.25943603515625,-0.35591304302215576,-7.767763137817383,4.768725872039795
1757491409622477000,12.26947705078125,0.12247838079929352,-7.792228698730469,4.256741046905518
1757491409632519200,12.279519287109375,0.21450550854206085,-7.87662410736084,3.8942439556121826
1757491409642558200,12.28955810546875,0.24203883111476898,-7.948749542236328,3.492616653442383
1757491409652603600,12.299603759765626,0.46095865964889526,-7.945308208465576,3.206434726715088
1757491409662644500,12.30964453125,-0.03853168338537216,-7.977779388427734,2.9078328609466553
1757491409672681500,12.319681396484375,0.6180033087730408,-7.993790626525879,3.071760892868042
1757491409682726100,12.32972607421875,0.679354727268219,-8.074594497680664,3.455132246017456
1757491409692767000,12.33976708984375,0.02843114547431469,-8.210914611816406,3.9369654655456543
1757491409702803500,12.349803466796875,-0.2495207041501999,-8.204779624938965,4.495562553405762
1757491409712848100,12.35984814453125,-0.26755204796791077,-8.165050506591797,4.923151969909668
1757491409722889500,12.369889404296876,-0.4721814692020416,-7.963788032531738,4.839504718780518
1757491409732941300,12.37994140625,-0.8812906742095947,-7.915081024169922,4.28090763092041
1757491409742966800,12.389966796875,-0.20679916441440582,-7.52699613571167,3.8233156204223633
1757491409753012000,12.400011962890625,-0.7656956315040588,-7.2276458740234375,3.058293342590332
1757491409763048000,12.4100478515625,-0.35980361700057983,-7.35087251663208,2.7393407821655273
1757491409773093600,12.42009375,-0.8553285598754883,-7.63069486618042,2.4640824794769287
1757491409783108600,12.430108642578125,-0.3114706873893738,-8.017133712768555,2.467299699783325
1757491409793174500,12.440174560546875,0.0727986991405487,-8.438887596130371,2.6571898460388184
1757491409803215600,12.450215576171875,0.596754789352417,-8.885107040405273,2.9238440990448
1757491409813256400,12.46025634765625,2.2397756576538086,-8.762702941894531,2.8108675479888916
1757491409823297000,12.470297119140625,2.3469161987304688,-8.829366683959961,2.240673542022705
1757491409833305000,12.48030517578125,1.5492730140686035,-9.264588356018066,2.106598138809204
1757491409843357700,12.490357666015624,2.861894130706787,-10.386720657348633,1.9295021295547485
1757491409853418000,12.50041796875,3.5796308517456055,-11.683554649353027,0.4974702298641205
1757491409863456500,12.51045654296875,2.178873300552368,-12.960187911987305,-0.7814823985099792
1757491409873475800,12.520475830078125,1.5489736795425415,-14.662540435791016,-0.16108489036560059
1757491409883501300,12.530501220703124,0.3529951274394989,-16.418014526367188,1.9818004369735718
1757491409893558500,12.54055859375,0.04369417950510979,-16.901567459106445,3.8033390045166016
1757491409903619800,12.550619873046875,-0.24428339302539825,-16.820240020751953,5.11304235458374
1757491409913665000,12.5606650390625,-0.07347206771373749,-16.364593505859375,6.154669761657715
1757491409933711400,12.58071142578125,-1.1966519355773926,-16.116867065429688,7.105466842651367
1757491409943767600,12.590767578125,0.04571428894996643,-15.518916130065918,6.279168128967285
1757491409953827800,12.600827880859375,-0.5880009531974792,-14.938471794128418,5.208436012268066
1757491409963869400,12.610869384765625,-1.7449989318847656,-14.042366981506348,4.420294761657715
1757491409973905400,12.620905517578125,-2.0357449054718018,-12.379144668579102,4.024727821350098
1757491409983950000,12.6309501953125,-2.394426107406616,-10.683975219726562,4.2060136795043945
1757491409993990700,12.64099072265625,-2.7667994499206543,-9.866130828857422,5.566443920135498
1757491410004031700,12.65103173828125,-3.0457239151000977,-9.754576683044434,7.481356620788574
1757491410014072600,12.661072509765624,-2.7620856761932373,-9.790115356445312,9.0883150100708
1757491410024108300,12.6711083984375,-1.5922189950942993,-9.815329551696777,10.006341934204102
1757491410034154500,12.681154541015625,-0.1472434103488922,-10.129268646240234,10.064326286315918
1757491410044191700,12.691191650390625,0.3494037985801697,-10.87214469909668,9.199047088623047
1757491410054236000,12.70123583984375,0.29568392038345337,-11.856012344360352,7.476717948913574
1757491410064276000,12.71127587890625,-0.3869628608226776,-12.989891052246094,5.349394798278809
1757491410074317800,12.72131787109375,-2.1237316131591797,-14.208539962768555,3.035473585128784
1757491410084358400,12.7313583984375,-2.88067364692688,-14.955530166625977,0.9983072876930237
1757491410094404000,12.741404052734374,-2.459294080734253,-15.175947189331055,-0.21996727585792542
1757491410104436000,12.75143603515625,-2.2287774085998535,-14.687005996704102,-0.9145850539207458
1757491410114476500,12.7614765625,-1.5436615943908691,-13.222502708435059,-0.9926958680152893
1757491410124486400,12.771486328125,-0.5267243981361389,-11.52853012084961,-0.23537994921207428
1757491410134539000,12.7815390625,0.5413888692855835,-10.249427795410156,1.1213842630386353
1757491410144577800,12.791577880859375,1.7641525268554688,-9.435399055480957,3.0615105628967285
1757491410154620000,12.801619873046874,2.4263737201690674,-9.010727882385254,5.19130277633667
1757491410164659500,12.811659423828125,1.7454478740692139,-9.021501541137695,7.141903877258301
1757491410174700000,12.821699951171874,0.7564181089401245,-9.187599182128906,7.966331958770752
1757491410184741000,12.8317412109375,0.35157355666160583,-9.491289138793945,7.171457290649414
1757491410194770400,12.8417705078125,0.33773207664489746,-9.849820137023926,5.750273704528809
1757491410204814300,12.851814453125,0.39796119928359985,-9.8599214553833,4.357372283935547
1757491410214872300,12.861872314453125,0.6890811920166016,-9.358111381530762,2.963198661804199
1757491410224904200,12.871904296875,0.7779659032821655,-8.291943550109863,1.4640543460845947
1757491410234932500,12.881932373046874,0.6620715856552124,-7.1962971687316895,0.10444705188274384
1757491410245011200,12.89201123046875,0.4296844005584717,-6.205022811889648,-1.1635072231292725
1757491410255027000,12.90202685546875,0.22692543268203735,-5.177161693572998,-2.308384418487549
1757491410265093600,12.91209375,0.07257423549890518,-3.7146787643432617,-2.723853349685669
1757491410275130600,12.922130615234375,-0.8236802220344543,-2.7306618690490723,-2.2334160804748535
1757491410285175600,12.932175537109375,-1.3970915079116821,-1.9806782007217407,-1.5991771221160889
1757491410295215400,12.94221533203125,-1.7958009243011475,-2.0377650260925293,-1.0297311544418335
1757491410305250000,12.95225,-1.5218144655227661,-2.1530606746673584,-0.4792892634868622
1757491410315297000,12.962297119140626,-1.2791022062301636,-2.4001872539520264,0.1909375786781311
